aX,aY,aZ,gX,gY,gZ
-0.480,-0.132,-2.311,111.084,46.082,-53.772
-0.508,-0.109,-2.518,138.062,55.054,-59.631
-0.586,-0.083,-2.768,163.086,53.162,-63.232
-0.689,-0.027,-3.052,194.946,34.973,-65.796
-0.787,-0.012,-3.333,244.202,3.296,-72.937
-0.886,-0.139,-3.505,308.960,-33.997,-86.731
-1.009,-0.404,-3.502,384.094,-64.697,-107.605
-0.978,-0.892,-3.209,455.994,-78.186,-129.761
-0.788,-1.003,-2.715,492.187,-75.562,-155.701
-0.786,-0.750,-2.285,491.760,-75.623,-167.725
-0.758,-0.479,-2.027,465.027,-84.595,-155.273
-0.681,-0.289,-1.950,430.969,-92.346,-136.108
-0.687,-0.267,-1.992,409.180,-86.060,-121.704
-0.627,-0.308,-1.991,405.579,-63.843,-117.554
-0.484,-0.295,-1.879,431.396,-46.570,-133.301
-0.362,-0.408,-1.671,460.388,-32.654,-151.001
-0.285,-0.553,-1.414,484.192,-32.410,-165.100
-0.206,-0.631,-1.116,501.587,-46.875,-178.040
-0.165,-0.758,-0.814,501.648,-69.641,-190.186
-0.123,-0.945,-0.482,485.168,-97.412,-200.134
-0.070,-1.051,-0.117,452.759,-128.906,-204.956
-0.018,-1.054,0.204,408.813,-164.490,-208.313
-0.021,-0.992,0.380,363.892,-206.421,-211.914
-0.045,-0.907,0.454,321.167,-244.446,-212.463
-0.014,-0.913,0.433,292.542,-267.883,-208.984
0.037,-0.843,0.378,284.912,-271.240,-198.120
0.089,-0.740,0.347,286.377,-254.639,-176.758
0.109,-0.670,0.345,289.368,-220.032,-144.836
0.096,-0.608,0.378,295.715,-177.185,-107.056
0.056,-0.531,0.481,305.115,-136.108,-74.280
-0.035,-0.474,0.653,308.411,-106.812,-51.331
-0.073,-0.429,0.840,302.185,-91.919,-35.522
-0.103,-0.362,0.989,287.354,-86.975,-28.015
-0.166,-0.297,1.068,266.724,-86.975,-23.682
-0.216,-0.251,1.058,249.268,-86.975,-18.982
-0.231,-0.214,1.007,237.671,-79.712,-15.930
-0.212,-0.191,0.942,228.882,-60.974,-13.977
-0.178,-0.198,0.962,225.037,-39.612,-14.099
-0.164,-0.295,1.096,226.746,-25.757,-16.296
-0.129,-0.536,1.465,226.501,-22.766,-19.165
-0.042,-0.820,2.041,215.088,-25.635,-20.325
0.075,-1.021,2.681,181.091,-24.841,-19.592
0.272,-0.914,3.214,130.615,-17.395,-20.081
0.528,-0.546,3.423,84.290,-5.554,-26.611
0.652,-0.311,3.261,26.550,5.249,-31.189
0.690,-0.243,2.701,-41.992,12.146,-20.874
0.632,-0.143,1.870,-96.924,20.081,2.686
0.430,-0.005,0.994,-134.583,28.198,17.273
0.255,0.163,0.295,-149.658,26.855,20.813
0.240,0.402,-0.085,-133.911,12.573,17.273
0.253,0.615,-0.121,-98.206,-6.897,7.385
0.283,0.732,0.045,-63.049,-19.897,-2.319
0.315,0.782,0.252,-38.391,-21.606,-6.470
0.366,0.783,0.368,-27.344,-15.991,-5.981
0.400,0.707,0.428,-25.330,-8.972,-1.526
0.426,0.621,0.473,-23.193,-1.343,6.775
0.402,0.584,0.498,-18.433,4.456,16.113
0.344,0.544,0.532,-14.343,6.653,24.414
0.297,0.524,0.610,-7.080,7.080,29.358
0.253,0.505,0.730,2.869,6.897,26.672
0.254,0.506,0.843,11.169,10.437,16.968
0.308,0.505,0.906,11.963,14.954,5.188
0.397,0.480,0.911,4.761,14.832,-5.005
0.490,0.458,0.900,-3.601,9.094,-14.099
0.580,0.451,0.869,-10.864,1.465,-20.752
0.642,0.449,0.839,-16.724,-5.005,-24.414
0.658,0.443,0.787,-20.874,-11.780,-23.437
0.625,0.431,0.720,-23.071,-18.372,-18.555
0.567,0.434,0.666,-20.264,-22.888,-13.000
0.512,0.436,0.656,-13.245,-22.827,-8.362
0.462,0.413,0.694,-5.615,-19.165,-4.578
0.439,0.393,0.760,1.282,-12.878,-1.831
0.415,0.382,0.843,6.531,-6.958,0.305
0.394,0.382,0.901,6.165,-3.357,2.625
0.359,0.394,0.915,1.526,-2.502,5.127
0.317,0.407,0.898,-5.249,-2.930,6.226
0.282,0.432,0.852,-12.207,-4.517,5.432
0.262,0.445,0.806,-18.494,-7.751,3.357
0.255,0.438,0.781,-22.949,-10.010,-0.122
0.259,0.404,0.788,-25.208,-11.108,-2.808
0.252,0.346,0.841,-25.269,-11.230,-5.676
0.230,0.255,0.949,-24.353,-9.888,-8.118
0.232,0.160,1.092,-22.156,-5.249,-10.376
0.266,0.052,1.274,-21.423,0.793,-12.573
0.309,-0.045,1.454,-26.550,5.920,-12.329
0.342,-0.113,1.577,-38.391,9.094,-9.644
0.362,-0.157,1.623,-56.641,11.414,-4.944
0.354,-0.184,1.591,-78.308,14.893,1.465
0.336,-0.208,1.518,-99.731,20.447,10.620
0.295,-0.218,1.450,-117.615,28.931,20.386
0.223,-0.252,1.412,-129.944,40.283,30.945
0.134,-0.290,1.442,-138.062,51.270,40.161
0.071,-0.296,1.514,-142.517,61.218,45.776
0.037,-0.317,1.575,-148.682,69.824,44.800
0.022,-0.350,1.579,-160.095,77.759,40.771
0.034,-0.372,1.517,-176.575,85.754,38.330
0.034,-0.384,1.394,-195.557,94.727,38.330
0.041,-0.402,1.247,-214.722,106.567,41.138
0.114,-0.437,1.166,-234.680,119.568,46.692
0.148,-0.427,1.081,-256.897,127.930,56.091
0.125,-0.427,0.939,-284.851,129.578,69.702
0.084,-0.468,0.749,-313.965,129.456,83.069
0.036,-0.463,0.581,-334.839,132.568,92.102
0.003,-0.462,0.423,-351.074,139.709,100.525
-0.029,-0.492,0.267,-368.591,146.057,110.352
-0.057,-0.530,0.108,-387.390,150.330,118.774
-0.087,-0.561,-0.068,-406.067,153.870,124.268
-0.133,-0.595,-0.242,-425.964,158.752,130.554
-0.198,-0.631,-0.454,-447.754,164.795,138.306
-0.312,-0.698,-0.718,-463.501,166.382,149.170
-0.391,-0.724,-0.995,-459.778,159.119,162.109
-0.433,-0.705,-1.143,-442.200,145.874,168.945
-0.462,-0.736,-1.258,-423.401,134.521,164.124
-0.496,-0.736,-1.370,-403.015,128.174,151.550
-0.556,-0.749,-1.523,-390.442,128.052,140.259
-0.579,-0.760,-1.667,-387.451,131.104,139.221
-0.619,-0.761,-1.803,-390.564,134.705,144.470
-0.702,-0.767,-1.940,-395.569,136.719,152.954
-0.786,-0.752,-2.049,-404.846,137.695,163.025

-0.910,-0.462,-2.779,-425.781,119.629,176.697
-0.901,-0.203,-3.234,-406.555,76.965,174.622
-0.834,0.029,-3.441,-342.041,23.437,153.687
-0.792,0.195,-3.363,-251.099,-20.203,111.206
-0.746,0.186,-3.013,-168.640,-48.157,60.791
-0.613,0.136,-2.629,-106.445,-57.251,26.062
-0.485,0.115,-2.229,-69.641,-52.734,11.536
-0.393,0.146,-1.957,-59.814,-45.166,12.573
-0.394,0.239,-1.818,-65.002,-43.396,29.114
-0.467,0.343,-1.784,-74.463,-41.199,48.279
-0.500,0.447,-1.819,-77.271,-30.884,56.213
-0.458,0.522,-1.850,-67.993,-14.099,46.570
-0.338,0.534,-1.888,-51.575,3.967,24.231
-0.211,0.492,-1.885,-31.250,15.564,1.038
-0.094,0.427,-1.811,-5.737,17.212,-15.137
0.046,0.326,-1.658,20.386,12.573,-24.048
0.177,0.236,-1.462,36.072,5.859,-27.100
0.238,0.185,-1.274,38.879,-2.380,-21.729
0.248,0.159,-1.115,32.776,-13.977,-8.606
0.182,0.170,-0.999,22.461,-26.245,5.676
0.076,0.202,-0.941,11.292,-33.569,18.005
-0.012,0.230,-0.930,0.732,-30.945,24.475
-0.070,0.242,-0.964,-8.728,-18.982,24.719
-0.088,0.247,-1.042,-17.151,-4.333,22.827
-0.076,0.245,-1.133,-21.973,6.531,21.118
-0.057,0.231,-1.208,-20.264,12.024,17.273
-0.056,0.212,-1.255,-14.465,8.606,9.705
-0.066,0.184,-1.264,-5.371,-1.831,1.892
-0.084,0.156,-1.208,5.676,-12.756,-4.944
-0.096,0.140,-1.109,16.174,-20.508,-11.169
-0.101,0.133,-1.001,21.667,-24.719,-14.404
-0.102,0.133,-0.906,20.935,-26.123,-15.442
-0.095,0.130,-0.818,17.517,-26.367,-15.076
-0.070,0.115,-0.746,11.292,-26.367,-15.076
-0.050,0.096,-0.733,1.343,-26.184,-14.221
-0.032,0.095,-0.779,-9.888,-21.484,-11.108
-0.027,0.100,-0.872,-20.447,-11.475,-6.042
-0.030,0.114,-0.983,-27.283,-1.770,-0.305
-0.042,0.137,-1.071,-28.137,5.188,6.226
-0.060,0.165,-1.115,-20.813,9.155,10.071
-0.067,0.181,-1.086,-9.338,7.812,8.850
-0.068,0.170,-1.015,1.343,2.502,3.052
-0.047,0.133,-0.926,9.277,-4.944,-3.357
-0.021,0.083,-0.849,11.353,-13.184,-8.789
0.007,0.052,-0.804,7.385,-17.822,-9.766
0.000,0.050,-0.811,-1.038,-17.334,-5.493
-0.020,0.065,-0.856,-11.108,-13.489,1.526
-0.050,0.094,-0.915,-19.043,-7.568,8.667
-0.087,0.118,-0.958,-23.499,-0.916,13.000
-0.108,0.139,-0.987,-23.804,5.188,14.648
-0.116,0.151,-0.997,-20.447,7.690,13.123
-0.117,0.144,-1.003,-16.052,5.493,8.789
-0.106,0.133,-1.007,-11.963,0.488,3.906
-0.090,0.131,-1.018,-9.644,-3.296,0.244
-0.077,0.126,-1.039,-9.399,-4.089,-0.977
-0.076,0.122,-1.066,-8.972,-1.831,0.549
-0.080,0.133,-1.085,-7.568,2.197,3.662
-0.106,0.155,-1.085,-5.615,6.104,7.202
-0.133,0.168,-1.068,-3.601,7.202,8.667
-0.145,0.171,-1.036,-2.197,4.517,6.653
-0.147,0.258,-1.162,-1.587,0.671,2.869
-0.149,0.347,-1.437,-1.099,-10.376,-1.282
-0.087,0.141,-1.299,11.536,-22.034,-4.395
-0.068,0.165,-1.031,25.146,-9.277,-6.531
-0.069,0.182,-0.915,21.973,4.578,-7.263
-0.031,0.153,-0.938,6.897,10.315,-2.808
-0.043,0.167,-1.002,-2.625,9.949,2.380
-0.031,0.185,-1.043,-3.174,14.709,4.272
-0.037,0.177,-1.028,-0.793,16.907,3.418
-0.047,0.169,-0.997,1.343,12.695,1.282
-0.060,0.157,-0.972,2.441,6.104,-0.122
-0.067,0.140,-0.967,0.732,0.305,-0.854
-0.068,0.134,-0.982,-2.747,-3.174,-0.122
-0.055,0.140,-1.015,-5.676,-1.709,1.831
-0.046,0.148,-1.049,-7.263,1.282,3.967
-0.043,0.145,-1.053,-7.141,2.258,5.615
-0.053,0.148,-1.027,-5.310,1.587,6.348
-0.051,0.145,-0.997,-2.441,-0.427,6.042
-0.042,0.129,-0.960,-0.793,-3.662,4.883
-0.040,0.124,-0.949,-1.282,-5.554,3.418
-0.046,0.127,-0.964,-3.906,-5.371,2.441
-0.057,0.135,-1.022,-7.019,-3.479,1.709
-0.060,0.144,-1.087,-7.690,-1.221,1.160
-0.070,0.133,-1.078,-5.737,0.305,0.977
-0.099,0.137,-1.045,-3.723,1.709,0.610
-0.116,0.154,-1.044,-2.563,1.648,-0.244
-0.094,0.155,-1.032,-1.038,-0.610,-1.587
-0.078,0.159,-1.013,1.770,-3.113,-3.662
-0.042,0.148,-0.993,3.418,-4.944,-6.836
-0.003,0.126,-0.976,3.174,-5.920,-8.362
0.020,0.114,-0.976,2.136,-5.310,-7.263
0.021,0.107,-0.980,0.854,-3.357,-3.906
0.007,0.108,-0.986,-0.732,-0.061,-0.488
-0.016,0.117,-0.990,-1.953,3.174,2.991
-0.044,0.125,-0.996,-3.174,4.822,4.944
-0.058,0.140,-0.996,-2.991,3.906,5.249
-0.047,0.135,-0.989,-2.441,1.648,3.296
-0.023,0.116,-0.983,-3.052,-1.099,0.305
-0.003,0.108,-0.982,-3.357,-2.991,-0.916
-0.006,0.104,-0.975,-3.601,-2.563,0.122
-0.020,0.102,-0.980,-4.456,0.061,3.052
-0.042,0.127,-1.018,-5.432,2.747,5.676
-0.077,0.171,-1.138,-6.226,2.258,7.019
-0.082,0.152,-1.123,-3.784,-0.732,6.165
-0.090,0.149,-1.037,0.732,-0.061,3.784
-0.092,0.133,-0.973,1.953,-0.305,1.099
-0.066,0.118,-0.970,-0.061,-2.502,-0.671
-0.066,0.123,-1.007,-2.136,-4.517,-1.404
-0.064,0.120,-1.042,-2.991,-3.296,-0.854
-0.069,0.119,-1.054,-2.808,0.122,0.610
-0.072,0.126,-1.050,-2.136,4.639,2.075
-0.066,0.137,-1.047,-1.404,7.690,2.930
-0.068,0.135,-1.035,-1.099,6.836,3.052
-0.064,0.129,-1.014,-0.061,4.578,1.343
-0.049,0.132,-0.979,1.709,1.831,-0.366
-0.038,0.121,-0.949,0.854,-2.075,-1.587
-0.026,0.110,-0.942,-2.136,-5.310,-2.014
-0.025,0.103,-0.965,-5.432,-5.676,-1.282
-0.038,0.102,-0.997,-7.446,-3.906,0.977

-0.344,0.273,-2.073,68.848,6.348,-5.859
-0.368,0.259,-2.221,86.914,3.296,-13.733
-0.396,0.245,-2.370,108.887,3.113,-21.484
-0.408,0.187,-2.521,134.766,3.845,-30.884
-0.411,0.130,-2.678,162.842,1.160,-42.297
-0.423,0.070,-2.792,198.059,-5.737,-54.077
-0.408,-0.015,-2.819,240.967,-18.555,-68.909
-0.366,-0.083,-2.713,281.860,-37.781,-86.670
-0.310,-0.098,-2.487,322.021,-61.035,-102.905
-0.278,-0.125,-2.251,355.042,-83.130,-114.746
-0.267,-0.185,-2.162,368.469,-95.337,-121.460
-0.241,-0.215,-2.227,363.953,-93.689,-120.728
-0.204,-0.144,-2.374,366.394,-80.994,-116.943
-0.163,-0.098,-2.457,387.573,-69.336,-119.507
-0.141,-0.142,-2.438,419.556,-65.674,-127.930
-0.106,-0.213,-2.300,458.862,-66.833,-136.108
-0.027,-0.275,-1.926,500.916,-65.552,-145.813
0.033,-0.354,-1.439,530.701,-64.575,-154.541
0.076,-0.445,-0.988,542.419,-72.449,-159.790
0.089,-0.442,-0.723,532.288,-81.787,-157.837
0.171,-0.367,-0.657,494.812,-89.050,-144.897
0.193,-0.276,-0.862,451.050,-100.525,-127.197
0.149,-0.138,-1.161,414.795,-121.887,-111.938
0.088,-0.029,-1.362,401.184,-145.752,-105.347
-0.061,-0.091,-1.274,410.461,-161.560,-108.459
-0.276,-0.286,-0.974,435.181,-173.340,-120.789
-0.614,-0.506,-0.583,465.027,-184.692,-143.372
-0.889,-0.905,-0.131,486.328,-192.322,-178.772
-0.225,-0.886,0.354,486.572,-207.214,-253.479
-0.618,-1.008,0.829,440.430,-244.385,-221.191
-0.436,-1.296,1.008,354.187,-237.854,-165.649
-0.473,-1.281,1.146,312.073,-220.459,-145.325
-0.433,-1.183,1.173,288.269,-215.576,-125.732
-0.400,-1.199,1.090,257.935,-199.463,-98.694
-0.544,-1.296,1.057,256.592,-180.603,-77.515
-0.702,-1.345,1.203,286.072,-149.963,-68.970
-0.883,-1.403,1.511,318.481,-101.807,-59.570
-0.907,-1.547,1.851,337.158,-46.204,-43.030
-0.793,-1.679,2.273,328.125,1.221,-32.410
-0.698,-1.680,2.705,279.053,24.109,-20.630
-0.553,-1.566,3.017,200.439,30.823,-16.541
-0.382,-1.341,3.043,109.375,28.625,-32.104
-0.140,-1.115,2.711,14.648,14.404,-50.598
0.030,-0.886,2.161,-70.129,-8.057,-55.847
0.227,-0.634,1.530,-130.981,-20.508,-46.448
0.373,-0.383,0.943,-160.706,-15.198,-30.701
0.476,-0.144,0.500,-158.813,3.052,-13.733
0.570,0.111,0.259,-135.010,23.376,1.709
0.623,0.358,0.185,-101.379,32.532,13.611
0.624,0.549,0.219,-68.970,27.344,18.494
0.614,0.690,0.294,-48.950,16.541,16.785
0.588,0.756,0.388,-41.077,6.348,13.123
0.584,0.755,0.470,-37.598,-0.488,9.277
0.571,0.699,0.546,-29.602,-3.113,6.653
0.551,0.600,0.645,-16.968,-4.517,6.287
0.515,0.519,0.762,-8.179,-4.761,11.230
0.445,0.422,0.880,-4.211,-3.723,19.409
0.374,0.338,0.964,-1.709,-1.526,25.452
0.304,0.275,1.018,0.854,-0.793,26.917
0.257,0.255,1.042,2.441,-0.549,24.719
0.218,0.229,1.052,0.916,0.061,19.836
0.201,0.249,1.052,-1.587,-0.366,13.550
0.230,0.281,1.037,-6.714,-1.221,5.554
0.301,0.312,1.018,-14.893,-1.709,-1.831
0.359,0.339,0.979,-24.780,-2.747,-6.592
0.423,0.340,0.890,-32.959,-5.676,-7.935
0.456,0.342,0.784,-36.377,-6.409,-5.066
0.476,0.342,0.711,-33.447,-4.639,-0.244
0.482,0.332,0.682,-25.574,-1.648,6.775
0.463,0.304,0.691,-14.587,2.808,14.099
0.431,0.275,0.764,-2.991,10.559,21.240
0.376,0.235,0.881,5.859,18.982,27.771
0.322,0.186,1.023,8.972,25.391,31.250
0.293,0.131,1.158,5.432,27.649,30.945
0.269,0.080,1.276,-4.272,26.306,27.100
0.268,0.020,1.351,-18.555,23.437,21.240
0.260,-0.035,1.394,-34.912,21.240,16.663
0.249,-0.087,1.399,-51.636,21.729,14.404
0.226,-0.152,1.396,-66.895,23.499,14.954
0.165,-0.224,1.409,-78.735,25.696,17.151
0.092,-0.285,1.464,-87.646,30.518,21.545
0.038,-0.319,1.554,-94.849,39.001,25.452
0.026,-0.347,1.634,-106.079,49.255,26.733
0.027,-0.390,1.674,-123.413,57.556,26.550
0.009,-0.442,1.656,-146.301,64.209,27.588
-0.005,-0.496,1.604,-172.546,72.754,30.884
-0.035,-0.520,1.539,-198.914,81.116,34.302
-0.102,-0.563,1.479,-223.877,87.891,38.086
-0.167,-0.597,1.434,-247.986,94.727,42.725
-0.200,-0.605,1.393,-269.470,100.830,45.166
-0.218,-0.608,1.336,-291.443,104.736,45.288
-0.217,-0.609,1.245,-316.589,108.154,45.166
-0.219,-0.613,1.110,-343.384,114.258,46.570
-0.219,-0.614,0.939,-370.483,122.498,50.049
-0.237,-0.617,0.752,-397.644,130.859,55.786
-0.250,-0.628,0.568,-425.720,138.062,62.927
-0.264,-0.646,0.388,-452.820,141.785,68.604
-0.314,-0.671,0.228,-478.943,142.822,71.167
-0.312,-0.702,0.079,-502.075,142.456,71.594
-0.317,-0.773,-0.057,-523.437,137.817,68.726
-0.356,-0.866,-0.180,-546.265,131.836,63.293
-0.362,-0.972,-0.315,-564.026,128.601,57.251
-0.375,-1.112,-0.484,-583.191,126.160,49.744
-0.391,-1.345,-0.645,-613.892,127.686,39.978
-0.443,-1.682,-0.880,-647.278,134.888,30.762
-0.468,-1.953,-1.309,-670.959,144.958,21.423
-0.468,-2.196,-1.740,-704.468,153.870,6.470
-0.402,-2.362,-2.138,-748.901,158.447,-6.226
-0.351,-2.536,-2.554,-779.297,158.142,-11.475
-0.275,-2.606,-2.961,-781.311,157.898,-11.475
-0.121,-2.434,-3.435,-731.140,166.992,-10.986
0.080,-1.983,-3.910,-632.812,187.988,-9.827
0.235,-1.436,-4.000,-505.859,213.989,5.554
0.226,-0.945,-4.000,-362.122,234.375,39.246
0.100,-0.681,-4.000,-212.402,231.323,75.012
-0.022,-0.553,-3.588,-73.975,192.932,91.370
-0.126,-0.503,-2.932,27.283,126.587,85.449
-0.168,-0.635,-2.307,78.430,53.528,71.472
-0.141,-0.636,-1.818,99.426,-8.850,72.449

-0.147,-0.356,-2.140,118.713,-31.616,-16.663
-0.134,-0.407,-2.267,132.874,-37.109,-20.325
-0.139,-0.484,-2.420,151.917,-43.030,-24.536
-0.171,-0.574,-2.595,180.542,-51.208,-28.503
-0.267,-0.745,-2.843,215.637,-60.425,-31.921
-0.431,-0.957,-3.103,252.991,-65.430,-36.255
-0.531,-1.091,-3.259,299.438,-52.734,-43.579
-0.541,-1.081,-3.214,365.051,-21.362,-58.289
-0.519,-0.987,-2.952,440.979,11.841,-80.994
-0.455,-0.904,-2.541,508.484,32.471,-102.661
-0.330,-0.896,-2.025,555.725,31.555,-120.056
-0.248,-0.873,-1.524,574.768,6.836,-132.019
-0.229,-0.826,-1.144,569.214,-41.992,-136.719
-0.269,-0.773,-1.004,555.359,-106.384,-138.428
-0.362,-0.753,-1.006,538.391,-168.579,-136.719
-0.339,-0.669,-1.055,515.625,-206.238,-128.662
-0.268,-0.450,-1.111,501.831,-200.134,-120.300
-0.208,-0.302,-1.117,506.226,-154.785,-119.141
-0.164,-0.309,-1.009,518.250,-97.107,-122.986
-0.101,-0.418,-0.764,531.372,-55.603,-129.822
-0.094,-0.508,-0.480,541.687,-42.847,-144.226
-0.145,-0.598,-0.170,536.865,-58.899,-164.917
-0.185,-0.663,0.071,514.465,-94.360,-186.218
-0.241,-0.724,0.274,480.408,-134.277,-204.651
-0.237,-0.818,0.384,448.303,-167.114,-215.576
-0.161,-0.849,0.423,423.584,-184.937,-219.055
-0.068,-0.873,0.495,398.682,-185.303,-215.820
0.015,-0.929,0.579,376.526,-177.979,-203.003
0.069,-0.901,0.626,364.319,-172.852,-180.847
0.063,-0.868,0.712,354.004,-170.654,-156.738
0.048,-0.894,0.816,344.849,-167.542,-128.113
-0.016,-0.944,0.951,338.318,-155.640,-96.191
-0.134,-1.037,1.083,330.627,-132.019,-66.284
-0.254,-1.209,1.330,321.472,-103.882,-43.579
-0.368,-1.378,1.710,312.195,-78.003,-29.724
-0.494,-1.555,2.186,293.640,-59.937,-24.841
-0.565,-1.751,2.711,257.751,-49.438,-29.358
-0.574,-1.773,3.031,201.050,-39.978,-30.273
-0.653,-1.804,3.275,128.174,-34.851,-28.687
-0.601,-1.820,3.314,59.082,-29.785,-30.396
-0.376,-1.677,3.187,3.723,-15.015,-35.828
-0.090,-1.367,2.901,-45.654,8.484,-43.762
0.207,-1.002,2.490,-95.886,33.508,-44.128
0.420,-0.611,1.944,-140.869,49.011,-34.241
0.530,-0.266,1.351,-178.101,51.697,-15.381
0.537,-0.042,0.775,-207.275,53.101,6.348
0.511,0.058,0.345,-224.487,64.697,30.884
0.547,0.145,0.075,-221.619,85.266,55.115
0.539,0.210,0.012,-197.144,100.525,72.815
0.453,0.186,0.146,-161.377,106.262,87.158
0.378,0.084,0.405,-123.535,106.750,100.891
0.286,-0.029,0.725,-90.088,101.929,107.361
0.208,-0.169,1.094,-68.054,92.529,106.018
0.196,-0.314,1.502,-64.026,84.290,101.074
0.190,-0.412,1.880,-77.820,77.148,95.825
0.200,-0.459,2.115,-104.858,70.801,92.346
0.198,-0.485,2.214,-149.170,66.223,92.590
0.190,-0.542,2.120,-205.994,67.566,98.938
0.162,-0.611,1.879,-265.808,77.759,106.995
0.107,-0.665,1.603,-318.787,92.346,112.854
0.036,-0.709,1.314,-357.849,107.422,121.094
-0.030,-0.740,1.066,-382.568,120.667,134.460
-0.050,-0.710,0.867,-398.193,131.287,150.696
-0.055,-0.665,0.719,-415.283,139.343,162.903
-0.071,-0.665,0.560,-438.599,143.616,170.227
-0.107,-0.703,0.394,-465.881,142.761,173.279
-0.142,-0.750,0.203,-489.380,136.902,172.852
-0.163,-0.772,-0.045,-504.456,124.695,168.823
-0.179,-0.798,-0.291,-512.878,104.736,160.522
-0.184,-0.853,-0.512,-514.893,81.177,150.635
-0.176,-0.916,-0.736,-507.141,61.218,139.648
-0.203,-0.942,-0.947,-494.202,49.011,126.587
-0.255,-0.971,-1.110,-481.750,45.776,113.220
-0.296,-0.977,-1.233,-471.985,49.805,102.173
-0.329,-0.982,-1.338,-464.661,58.716,93.750
-0.373,-1.063,-1.519,-460.388,71.106,85.571
-0.433,-1.180,-1.874,-462.463,84.351,76.538
-0.476,-1.189,-2.293,-464.111,94.788,72.205
-0.411,-1.108,-2.663,-455.688,106.201,77.332
-0.388,-1.049,-3.007,-423.401,120.911,90.393
-0.410,-0.912,-3.187,-375.122,138.184,106.689
-0.433,-0.610,-3.243,-313.599,152.771,121.094
-0.462,-0.295,-3.187,-250.671,150.146,128.601
-0.490,-0.056,-3.018,-197.754,123.962,125.183
-0.480,0.086,-2.791,-156.311,80.627,111.572
-0.487,0.093,-2.487,-128.662,30.273,91.003
-0.466,0.060,-2.226,-107.056,-11.658,73.059
-0.477,0.108,-1.994,-87.708,-37.537,63.599
-0.486,0.178,-1.811,-77.698,-47.485,54.626
-0.466,0.213,-1.698,-76.111,-44.312,43.335
-0.417,0.240,-1.651,-76.538,-32.104,29.724
-0.368,0.251,-1.661,-72.998,-14.893,14.343
-0.292,0.246,-1.674,-64.575,1.892,1.709
-0.199,0.223,-1.667,-53.223,14.893,-7.385
-0.086,0.200,-1.671,-41.504,20.874,-14.954
0.019,0.154,-1.665,-31.372,17.944,-18.616
0.118,0.113,-1.624,-22.156,9.827,-16.602
0.172,0.095,-1.544,-13.184,0.732,-11.230
0.176,0.121,-1.453,-5.981,-8.972,-3.113
0.145,0.163,-1.350,-1.221,-18.127,5.981
0.103,0.179,-1.254,0.732,-22.827,14.343
0.066,0.190,-1.168,-0.122,-23.926,19.043
0.031,0.192,-1.109,-1.343,-23.193,18.494
0.028,0.202,-1.080,-2.136,-19.897,15.320
0.023,0.191,-1.083,-4.456,-15.442,10.925
0.012,0.181,-1.119,-7.568,-10.437,7.935
-0.004,0.170,-1.155,-8.606,-5.310,7.019
-0.033,0.157,-1.178,-7.080,0.488,6.653
-0.061,0.137,-1.184,-1.953,5.859,6.226
-0.097,0.126,-1.168,5.371,9.888,5.615
-0.113,0.129,-1.128,12.512,13.062,5.493
-0.113,0.137,-1.073,18.005,13.611,4.883
-0.118,0.132,-1.017,18.921,9.338,2.441
-0.104,0.116,-0.978,16.235,2.686,-0.793
-0.091,0.111,-0.968,11.780,-3.784,-1.953
-0.092,0.104,-0.980,7.019,-9.583,-1.648
-0.106,0.098,-1.014,2.808,-12.207,-0.671
-0.140,0.099,-1.047,1.770,-10.315,1.038
-0.168,0.121,-1.058,4.333,-5.493,3.662

-0.225,0.130,-2.125,110.840,-50.049,-28.870
-0.215,0.030,-2.080,134.644,-71.899,-39.185
-0.177,-0.093,-2.047,159.607,-91.064,-47.180
-0.144,-0.213,-2.082,182.129,-104.675,-52.124
-0.106,-0.310,-2.198,201.782,-108.826,-52.185
-0.093,-0.361,-2.407,222.290,-95.642,-47.546
-0.098,-0.391,-2.736,244.934,-59.631,-36.865
-0.100,-0.440,-3.084,271.179,-10.803,-22.095
-0.078,-0.413,-3.250,315.002,36.743,-10.864
-0.085,-0.403,-3.132,377.502,70.496,-12.512
-0.150,-0.396,-2.738,436.890,83.923,-23.926
-0.228,-0.353,-2.258,475.708,80.078,-35.645
-0.283,-0.282,-1.796,491.455,62.622,-48.523
-0.315,-0.207,-1.392,489.685,34.668,-67.078
-0.290,-0.145,-1.089,480.347,3.845,-87.769
-0.235,-0.134,-0.870,470.154,-20.691,-108.826
-0.142,-0.151,-0.751,459.717,-31.250,-126.465
-0.031,-0.197,-0.757,446.411,-24.658,-135.559
0.115,-0.176,-0.823,435.181,-10.864,-135.010
0.201,-0.128,-0.914,431.152,-2.380,-129.944
0.224,-0.078,-0.992,432.068,-6.104,-125.732
0.185,-0.095,-0.971,438.232,-25.818,-127.563
0.112,-0.153,-0.787,455.811,-52.063,-141.602
0.054,-0.286,-0.466,470.947,-75.500,-162.903
0.010,-0.424,-0.119,475.647,-94.604,-182.007
-0.026,-0.592,0.199,466.736,-111.450,-194.641
-0.008,-0.715,0.431,447.205,-126.648,-197.388
-0.009,-0.796,0.582,420.349,-138.611,-190.857
0.027,-0.840,0.657,392.639,-143.677,-178.040
0.049,-0.886,0.690,364.136,-141.968,-161.499
0.052,-0.962,0.693,339.050,-138.000,-142.639
0.051,-0.986,0.687,322.632,-132.446,-124.146
-0.054,-0.996,0.703,314.392,-127.502,-108.398
-0.160,-1.046,0.827,311.707,-121.948,-91.187
-0.243,-1.093,1.037,312.256,-110.779,-75.562
-0.376,-1.128,1.269,311.584,-93.445,-68.848
-0.459,-1.205,1.538,307.373,-72.693,-68.665
-0.401,-1.264,1.887,293.518,-51.636,-68.726
-0.300,-1.266,2.275,260.437,-34.485,-66.345
-0.230,-1.218,2.554,210.205,-23.071,-56.335
-0.178,-1.146,2.629,145.569,-14.160,-37.842
-0.176,-1.097,2.491,75.806,-8.667,-15.503
-0.171,-1.042,2.241,18.250,-10.071,0.488
-0.145,-0.931,1.991,-21.973,-11.169,7.324
-0.093,-0.812,1.771,-51.331,-7.751,6.958
-0.006,-0.715,1.629,-73.730,-0.793,1.892
0.082,-0.620,1.536,-88.562,5.615,-4.150
0.185,-0.535,1.498,-101.929,13.245,-7.629
0.241,-0.520,1.464,-116.211,21.912,-5.310
0.214,-0.561,1.470,-130.859,30.334,2.869
0.230,-0.563,1.501,-142.883,40.283,15.137
0.227,-0.582,1.550,-156.067,50.476,22.888
0.178,-0.657,1.600,-173.523,56.030,29.968
0.149,-0.702,1.610,-191.467,58.960,41.138
0.108,-0.709,1.595,-208.557,61.340,50.232
0.088,-0.705,1.554,-226.929,63.782,56.946
0.082,-0.690,1.483,-247.314,68.115,64.636
0.073,-0.664,1.372,-270.020,73.853,71.899
0.076,-0.639,1.237,-294.189,80.261,79.163
0.074,-0.620,1.101,-318.298,87.158,86.975
0.056,-0.619,0.977,-341.614,97.046,95.764
0.010,-0.636,0.865,-364.441,110.291,105.469
-0.046,-0.637,0.721,-387.085,124.329,115.234
-0.139,-0.656,0.591,-408.936,134.766,122.070
-0.203,-0.678,0.486,-425.659,137.878,125.732
-0.259,-0.645,0.325,-434.082,133.301,124.512
-0.329,-0.581,0.119,-438.965,118.103,114.868
-0.370,-0.529,-0.083,-439.087,92.773,99.915
-0.349,-0.492,-0.257,-432.007,66.589,81.177
-0.305,-0.491,-0.420,-420.959,51.025,55.664
-0.280,-0.546,-0.583,-412.415,54.199,30.334
-0.211,-0.716,-0.669,-408.997,74.158,14.221
-0.075,-0.865,-0.690,-413.452,96.680,14.099
-0.037,-0.926,-0.775,-429.138,104.126,32.776
-0.116,-1.014,-0.927,-460.510,102.051,62.622
-0.177,-1.092,-1.258,-498.779,104.858,93.018
-0.288,-1.064,-1.815,-537.292,107.178,115.173
-0.391,-0.951,-2.536,-572.021,102.295,126.831
-0.403,-0.870,-3.061,-582.886,89.966,129.456
-0.287,-0.797,-3.291,-545.898,79.712,122.437
-0.220,-0.703,-3.267,-475.464,75.134,102.539
-0.216,-0.588,-3.103,-397.705,69.885,80.261
-0.202,-0.461,-2.845,-329.224,60.669,65.735
-0.181,-0.356,-2.579,-282.104,47.424,57.922
-0.162,-0.318,-2.354,-260.681,28.503,55.359
-0.126,-0.279,-2.189,-254.578,8.850,55.725
-0.140,-0.256,-2.134,-256.592,-1.404,57.251
-0.196,-0.191,-2.241,-262.329,1.282,62.378
-0.239,-0.093,-2.405,-258.484,14.038,69.885
-0.266,0.052,-2.612,-236.206,31.189,73.059
-0.276,0.177,-2.728,-197.205,43.030,66.284
-0.248,0.238,-2.689,-141.113,44.739,48.462
-0.189,0.244,-2.493,-80.078,36.560,22.766
-0.105,0.186,-2.196,-28.931,21.240,-3.235
-0.001,0.082,-1.866,3.784,3.784,-22.278
0.117,-0.025,-1.551,19.531,-12.207,-29.785
0.203,-0.075,-1.325,21.118,-25.146,-22.705
0.208,-0.048,-1.215,14.038,-34.912,-5.066
0.228,0.341,-2.189,4.395,-44.189,12.756
0.041,0.089,-1.848,11.353,-74.707,22.949
0.148,0.001,-1.471,42.786,-40.466,31.372
0.009,0.193,-1.048,70.496,17.700,24.963
-0.084,0.337,-0.862,64.697,49.255,6.531
-0.068,0.283,-0.925,34.302,57.312,-6.470
0.080,0.143,-0.983,17.761,46.265,-5.737
0.116,0.129,-1.049,9.399,33.386,-6.287
0.091,0.129,-1.128,5.554,15.137,-10.742
0.118,0.104,-1.182,5.127,-2.747,-9.766
0.111,0.097,-1.208,7.019,-9.705,-6.042
0.053,0.113,-1.190,9.827,-6.714,-0.854
0.029,0.111,-1.126,11.475,-2.869,5.859
0.043,0.109,-1.055,10.132,-2.563,7.019
0.067,0.109,-1.013,7.935,-5.066,3.174
0.088,0.096,-0.991,5.798,-8.118,-0.366
0.098,0.083,-0.968,4.761,-11.902,-1.160
0.090,0.071,-0.940,3.784,-14.221,0.061
0.051,0.061,-0.909,2.502,-13.489,3.418
-0.009,0.052,-0.897,1.038,-9.521,7.568
-0.053,0.066,-0.905,-0.977,-4.272,11.780

-0.303,-0.029,-2.604,117.798,29.907,-5.371
-0.321,0.022,-2.908,135.925,35.217,-9.216
-0.319,0.004,-3.083,169.983,39.063,-17.883
-0.307,-0.117,-3.100,218.628,38.086,-30.762
-0.323,-0.293,-2.989,274.414,31.494,-47.607
-0.347,-0.396,-2.771,327.759,24.902,-64.941
-0.362,-0.437,-2.517,373.230,23.437,-82.947
-0.338,-0.481,-2.276,405.762,24.841,-102.051
-0.281,-0.548,-2.098,422.546,27.527,-120.117
-0.219,-0.529,-1.989,426.575,31.067,-135.254
-0.150,-0.461,-1.938,424.011,32.959,-143.921
-0.094,-0.414,-1.868,419.556,29.663,-145.325
-0.058,-0.356,-1.745,415.833,19.348,-144.043
-0.052,-0.320,-1.602,418.884,2.686,-143.860
-0.068,-0.311,-1.450,422.791,-18.799,-147.156
-0.095,-0.341,-1.270,424.988,-44.067,-153.687
-0.100,-0.403,-1.118,425.171,-69.763,-162.415
-0.120,-0.460,-1.021,419.434,-95.093,-173.950
-0.100,-0.487,-0.899,409.241,-118.530,-183.350
-0.108,-0.529,-0.728,409.241,-135.864,-189.697
-0.116,-0.602,-0.517,414.185,-144.165,-194.824
-0.113,-0.683,-0.283,416.443,-146.301,-197.754
-0.072,-0.732,-0.075,415.039,-144.897,-195.190
-0.041,-0.770,0.089,412.476,-137.329,-185.242
-0.005,-0.737,0.231,404.724,-124.390,-168.518
0.067,-0.647,0.331,389.221,-112.488,-146.240
0.102,-0.616,0.384,373.169,-103.577,-122.986
0.082,-0.593,0.426,356.934,-96.680,-101.318
0.012,-0.570,0.449,343.323,-96.069,-83.618
-0.008,-0.555,0.489,330.383,-103.943,-70.435
-0.022,-0.527,0.552,320.801,-117.188,-59.937
-0.084,-0.506,0.616,313.599,-130.676,-50.354
-0.150,-0.542,0.693,306.763,-141.846,-40.466
-0.247,-0.620,0.807,301.331,-150.330,-31.067
-0.334,-0.820,1.017,303.467,-154.602,-28.381
-0.389,-1.000,1.434,310.974,-149.475,-30.579
-0.386,-1.257,2.017,311.646,-134.216,-28.870
-0.442,-1.496,2.656,296.936,-116.394,-24.597
-0.470,-1.720,3.252,255.981,-98.755,-22.888
-0.495,-1.842,3.641,190.552,-77.820,-27.039
-0.249,-1.837,3.766,108.826,-46.631,-27.344
-0.126,-1.541,3.586,24.353,-13.672,-26.489
0.032,-1.219,3.255,-44.312,0.122,-26.123
0.177,-0.928,2.728,-107.056,16.052,-12.024
0.215,-0.554,2.003,-164.490,35.278,8.240
0.201,-0.225,1.222,-207.458,45.837,24.475
0.181,0.056,0.502,-230.103,48.828,31.555
0.210,0.352,-0.012,-230.957,48.706,33.325
0.231,0.603,-0.313,-210.632,42.480,32.043
0.206,0.715,-0.341,-176.208,32.227,30.396
0.197,0.691,-0.113,-134.949,23.682,30.823
0.204,0.615,0.250,-92.468,22.095,29.663
0.212,0.516,0.674,-58.716,27.710,24.414
0.248,0.360,1.116,-45.593,34.241,18.494
0.288,0.205,1.522,-52.856,37.354,17.578
0.315,0.065,1.829,-76.538,33.813,20.569
0.275,-0.054,1.970,-111.145,26.978,25.085
0.146,-0.202,1.997,-150.452,22.827,28.687
0.090,-0.308,1.979,-187.866,28.320,32.288
0.082,-0.375,1.934,-216.003,40.039,31.311
0.100,-0.420,1.874,-237.915,52.368,27.710
0.146,-0.447,1.775,-259.277,64.636,28.259
0.182,-0.462,1.637,-283.447,77.515,33.569
0.181,-0.471,1.451,-308.167,89.600,42.969
0.181,-0.473,1.244,-335.144,99.243,53.040
0.157,-0.474,1.012,-359.070,107.361,62.744
0.129,-0.450,0.776,-377.808,113.403,71.594
0.078,-0.424,0.562,-390.869,116.028,78.491
0.040,-0.401,0.389,-398.926,116.394,83.252
0.011,-0.399,0.260,-402.954,116.211,84.595
-0.023,-0.419,0.145,-403.625,115.051,81.909
-0.035,-0.451,0.047,-402.405,113.708,77.698
-0.052,-0.499,-0.043,-402.222,114.746,73.975
-0.089,-0.597,-0.148,-405.457,120.178,72.327
-0.139,-0.717,-0.326,-412.598,129.333,74.646
-0.221,-0.798,-0.562,-422.302,137.634,81.787
-0.285,-0.839,-0.796,-430.176,136.719,90.881
-0.327,-0.894,-1.031,-432.495,124.084,97.290
-0.395,-0.945,-1.339,-437.378,107.544,98.816
-0.480,-0.998,-1.724,-456.787,91.187,97.351
-0.499,-0.992,-2.055,-479.675,78.430,96.558
-0.497,-1.045,-2.361,-485.168,71.594,93.506
-0.504,-1.146,-2.560,-483.826,64.392,86.243
-0.457,-1.148,-2.652,-477.173,48.279,81.787
-0.360,-0.986,-2.705,-449.158,24.780,81.604
-0.271,-0.708,-2.678,-405.334,0.549,80.200
-0.243,-0.474,-2.595,-359.131,-21.423,74.646
-0.247,-0.332,-2.495,-317.566,-41.504,70.251
-0.267,-0.277,-2.382,-283.875,-58.105,63.538
-0.231,-0.269,-2.335,-253.479,-70.496,54.199
-0.140,-0.225,-2.302,-225.403,-76.416,40.283
-0.003,-0.182,-2.292,-202.209,-68.604,20.325
0.146,-0.125,-2.276,-179.993,-51.697,3.296
0.250,-0.105,-2.250,-157.349,-28.992,-5.005
0.272,-0.107,-2.198,-129.578,-4.761,-5.005
0.240,-0.092,-2.119,-97.046,13.672,2.563
0.156,-0.091,-2.004,-65.125,19.653,13.123
0.084,-0.088,-1.869,-40.283,13.184,20.264
0.025,-0.074,-1.729,-23.376,0.977,19.897
0.030,-0.083,-1.612,-9.949,-8.545,15.015
0.039,-0.070,-1.521,2.563,-9.399,11.536
0.034,-0.061,-1.430,12.939,0.183,9.033
0.018,-0.040,-1.329,24.536,16.052,7.690
0.014,-0.017,-1.220,34.851,29.907,8.057
0.009,-0.003,-1.104,39.490,36.865,7.446
-0.001,-0.003,-1.011,38.452,37.415,4.883
0.015,-0.000,-0.935,32.104,34.363,1.160
0.050,0.003,-0.886,22.583,29.724,-2.686
0.081,-0.004,-0.853,12.024,23.804,-6.653
0.118,-0.021,-0.833,0.977,17.822,-8.118
0.144,-0.036,-0.835,-9.033,10.742,-7.080
0.153,-0.040,-0.845,-17.029,3.052,-4.395
0.161,-0.041,-0.888,-23.010,-3.418,-1.160
0.176,-0.037,-0.947,-29.419,-8.789,2.319
0.176,-0.035,-1.009,-34.729,-11.780,4.822
0.164,-0.016,-1.069,-35.217,-9.338,7.263
0.160,-0.004,-1.116,-31.372,-1.892,11.108
0.132,0.004,-1.128,-24.841,6.104,14.587
0.077,0.003,-1.112,-16.785,11.597,15.625

-0.063,-0.362,-2.636,165.955,-40.466,-22.339
-0.044,-0.469,-3.049,182.922,-55.298,-18.677
-0.098,-0.574,-3.580,208.679,-58.167,-13.916
-0.275,-0.612,-4.000,254.333,-41.809,-9.216
-0.413,-0.555,-4.000,342.712,-6.958,-11.230
-0.470,-0.694,-4.000,461.975,30.151,-31.128
-0.546,-1.058,-3.883,575.012,48.279,-67.139
-0.535,-1.370,-3.121,655.701,38.452,-108.154
-0.455,-1.407,-2.239,690.796,5.066,-146.729
-0.315,-1.349,-1.285,686.096,-47.607,-175.110
-0.123,-1.173,-0.571,651.917,-99.243,-181.396
-0.057,-0.892,-0.199,596.619,-128.113,-170.593
-0.018,-0.685,-0.239,527.466,-133.728,-153.931
0.007,-0.600,-0.656,450.684,-114.197,-132.324
0.048,-0.646,-1.017,404.846,-84.412,-114.624
0.153,-0.678,-1.305,417.908,-55.176,-100.769
0.157,-0.684,-1.343,458.130,-40.161,-93.994
0.084,-0.736,-1.109,500.366,-48.218,-98.267
-0.035,-0.792,-0.659,530.273,-71.594,-111.877
-0.138,-0.846,-0.208,532.227,-101.440,-129.395
-0.193,-0.915,0.145,508.667,-133.362,-147.095
-0.136,-1.007,0.384,470.886,-155.701,-157.227
-0.043,-1.045,0.511,428.711,-160.583,-154.358
0.001,-1.054,0.531,390.564,-154.724,-137.329
0.034,-1.046,0.525,358.826,-151.917,-107.910
-0.015,-1.010,0.477,333.435,-155.029,-75.073
-0.176,-0.997,0.415,320.190,-158.752,-47.852
-0.311,-1.025,0.447,320.496,-154.053,-28.320
-0.476,-1.054,0.592,335.083,-135.742,-19.714
-0.639,-1.130,0.851,361.511,-106.812,-19.897
-0.803,-1.293,1.152,389.893,-73.120,-27.466
-0.866,-1.652,1.603,412.109,-45.166,-45.227
-0.718,-2.115,2.312,413.940,-27.893,-60.242
-0.556,-2.513,3.117,373.901,-18.921,-50.354
-0.403,-2.849,3.862,298.157,-12.207,-17.700
-0.298,-2.755,4.000,206.909,1.892,11.963
-0.114,-2.357,4.000,112.061,11.536,12.512
0.126,-1.851,3.735,22.705,14.465,3.601
0.295,-1.372,3.006,-68.604,20.630,9.583
0.250,-0.911,1.969,-149.536,24.963,25.696
0.079,-0.525,1.011,-203.918,17.639,43.579
0.006,-0.165,0.323,-231.873,18.982,49.805
-0.009,0.153,0.005,-223.450,28.381,41.809
0.063,0.376,0.011,-187.561,33.325,30.579
0.100,0.432,0.228,-146.851,33.997,20.630
0.126,0.365,0.544,-118.896,33.691,15.869
0.148,0.289,0.868,-106.567,33.569,13.489
0.170,0.173,1.137,-110.229,32.532,10.254
0.199,0.024,1.313,-125.732,33.203,10.986
0.232,-0.105,1.421,-145.264,37.842,14.404
0.223,-0.220,1.461,-165.344,42.480,18.860
0.175,-0.351,1.459,-186.523,44.739,26.794
0.083,-0.486,1.479,-204.529,50.110,37.354
0.043,-0.572,1.552,-215.576,61.035,47.302
0.062,-0.626,1.638,-225.159,73.975,52.917
0.097,-0.662,1.694,-240.173,84.473,55.847
0.124,-0.674,1.671,-262.268,91.003,58.411
0.121,-0.663,1.533,-291.016,93.201,62.622
0.090,-0.651,1.332,-324.890,94.666,69.031
0.038,-0.658,1.109,-358.826,98.511,76.416
-0.031,-0.673,0.907,-385.681,104.370,82.764
-0.096,-0.672,0.744,-403.259,109.802,87.830
-0.145,-0.672,0.608,-412.476,112.549,90.515
-0.170,-0.669,0.508,-416.870,112.000,89.539
-0.157,-0.676,0.419,-421.570,109.070,84.167
-0.126,-0.709,0.332,-430.298,102.905,75.195
-0.049,-0.740,0.220,-445.557,94.543,64.819
-0.024,-0.845,0.060,-467.224,85.144,55.725
-0.025,-0.944,-0.166,-487.366,78.003,55.969
-0.056,-1.006,-0.407,-503.052,80.139,63.477
-0.103,-1.068,-0.649,-515.808,96.558,72.205
-0.195,-1.137,-0.862,-525.879,118.164,81.909
-0.282,-1.164,-1.127,-528.198,136.230,92.041
-0.375,-1.183,-1.515,-522.156,142.029,98.083
-0.487,-1.228,-1.907,-517.334,132.080,99.670
-0.488,-1.300,-2.236,-518.005,115.234,100.525
-0.502,-1.393,-2.508,-516.418,103.516,96.558
-0.543,-1.428,-2.706,-510.132,111.938,91.797
-0.541,-1.323,-2.834,-490.784,141.418,96.436
-0.494,-1.137,-2.903,-457.275,175.537,107.422
-0.515,-0.978,-2.933,-423.401,190.002,119.751
-0.561,-0.803,-2.938,-396.606,173.523,135.803
-0.602,-0.687,-2.884,-370.361,132.019,147.400
-0.640,-0.577,-2.827,-334.229,75.928,146.484
-0.628,-0.401,-2.756,-284.729,15.930,138.245
-0.556,-0.232,-2.654,-234.985,-32.776,124.512
-0.505,-0.117,-2.534,-191.223,-66.833,102.234
-0.489,-0.045,-2.386,-152.771,-86.243,77.515
-0.501,-0.034,-2.228,-118.469,-88.623,56.030
-0.473,-0.037,-2.069,-89.294,-74.463,40.405
-0.434,-0.024,-1.925,-65.369,-53.223,27.771
-0.375,-0.021,-1.816,-49.927,-33.264,14.404
-0.288,-0.026,-1.743,-42.358,-16.846,0.671
-0.182,-0.052,-1.683,-37.476,-3.845,-11.902
-0.074,-0.105,-1.619,-31.982,6.531,-21.057
0.036,-0.147,-1.562,-25.513,14.587,-23.743
0.106,-0.160,-1.531,-14.465,20.325,-19.592
0.139,-0.137,-1.494,-1.404,25.452,-10.620
0.142,-0.085,-1.437,10.315,29.724,-1.282
0.121,-0.033,-1.375,19.897,29.541,4.944
0.083,-0.016,-1.311,25.574,24.231,7.263
0.047,-0.020,-1.250,25.757,13.672,7.141
0.028,-0.018,-1.199,23.376,-0.610,4.822
0.026,-0.020,-1.156,20.325,-14.099,0.427
0.037,-0.031,-1.114,16.541,-23.193,-3.723
0.053,-0.046,-1.084,14.526,-25.757,-7.996
0.054,-0.082,-1.056,14.648,-22.644,-9.705
0.024,-0.130,-1.041,14.404,-15.686,-7.141
-0.021,-0.143,-1.031,13.550,-8.179,-1.831
-0.071,-0.115,-1.025,14.160,-3.662,5.005
-0.107,-0.061,-1.001,14.587,-1.953,11.108
-0.090,0.007,-0.944,15.686,-3.662,13.855
-0.025,0.025,-0.852,19.165,-8.606,11.414
0.044,-0.010,-0.756,20.630,-13.733,4.761
0.097,-0.084,-0.686,16.846,-14.832,-1.465
0.101,-0.171,-0.664,7.324,-13.062,-2.075
0.046,-0.224,-0.707,-6.714,-8.301,5.005
-0.051,-0.206,-0.825,-23.987,-0.183,18.677
-0.180,-0.157,-0.998,-40.222,11.536,32.593

-0.408,-0.007,-2.391,118.591,92.346,2.197
-0.469,-0.047,-2.468,149.841,100.342,0.061
-0.513,-0.080,-2.521,182.190,108.398,-5.859
-0.538,-0.093,-2.551,215.271,117.004,-18.433
-0.558,-0.115,-2.594,248.352,121.643,-35.583
-0.584,-0.203,-2.635,278.564,117.004,-55.481
-0.601,-0.326,-2.667,308.899,101.685,-77.820
-0.595,-0.447,-2.679,341.919,83.313,-102.051
-0.587,-0.571,-2.661,376.648,68.481,-125.671
-0.571,-0.634,-2.616,412.842,61.584,-144.104
-0.556,-0.623,-2.561,447.876,62.744,-156.067
-0.559,-0.583,-2.527,478.210,65.796,-162.292
-0.569,-0.538,-2.468,499.878,65.063,-162.659
-0.559,-0.478,-2.364,516.968,59.753,-162.537
-0.584,-0.428,-2.223,532.104,50.659,-167.908
-0.617,-0.387,-2.036,541.809,38.635,-178.528
-0.607,-0.309,-1.811,546.631,23.010,-194.580
-0.580,-0.280,-1.569,542.053,3.296,-213.989
-0.543,-0.283,-1.359,529.907,-15.930,-233.459
-0.515,-0.323,-1.179,514.587,-33.203,-250.549
-0.468,-0.392,-0.988,499.939,-48.218,-263.550
-0.375,-0.484,-0.768,487.061,-61.646,-273.987
-0.320,-0.521,-0.604,474.548,-70.740,-279.114
-0.260,-0.540,-0.509,458.862,-71.899,-273.499
-0.247,-0.584,-0.473,440.796,-68.970,-261.353
-0.242,-0.634,-0.424,424.744,-72.327,-247.742
-0.204,-0.672,-0.342,411.133,-85.083,-237.488
-0.266,-0.749,-0.229,400.696,-107.422,-236.389
-0.278,-0.811,-0.056,393.311,-131.836,-244.019
-0.333,-0.849,0.146,382.446,-153.748,-259.033
-0.339,-0.942,0.319,365.479,-178.955,-266.907
-0.296,-1.004,0.457,341.980,-201.538,-259.155
-0.299,-1.087,0.537,318.848,-209.961,-242.004
-0.292,-1.227,0.621,302.124,-202.148,-218.567
-0.293,-1.387,0.761,294.739,-184.265,-189.514
-0.384,-1.557,0.931,296.875,-163.208,-159.790
-0.476,-1.789,1.191,308.350,-143.860,-137.085
-0.602,-2.141,1.612,321.472,-126.099,-119.202
-0.705,-2.547,2.139,328.125,-106.689,-100.708
-0.623,-2.994,2.696,312.927,-80.383,-80.017
-0.412,-3.299,3.382,260.193,-44.434,-50.049
-0.156,-3.080,3.735,178.345,-3.174,-8.667
0.057,-2.445,3.689,93.323,25.879,4.150
0.296,-1.795,3.199,15.442,38.452,-7.263
0.303,-1.258,2.502,-65.002,35.767,-4.456
0.328,-0.756,1.629,-137.573,29.602,10.620
0.243,-0.252,0.822,-187.378,19.653,17.212
0.128,0.171,0.149,-215.759,12.878,15.198
0.140,0.520,-0.264,-212.402,7.751,12.146
0.177,0.780,-0.383,-182.190,-4.517,3.906
0.193,0.860,-0.265,-140.442,-17.700,-5.859
0.145,0.784,0.028,-98.999,-22.522,-13.000
0.078,0.636,0.388,-65.918,-19.104,-18.005
0.031,0.401,0.749,-46.936,-14.526,-20.142
0.003,0.067,1.124,-43.091,-8.362,-20.508
0.032,-0.221,1.542,-47.180,-2.563,-20.996
0.034,-0.427,1.902,-60.974,-0.305,-22.461
-0.005,-0.563,2.123,-87.402,-0.793,-24.963
-0.034,-0.676,2.172,-122.437,-0.061,-25.330
-0.090,-0.769,2.130,-159.668,5.981,-23.071
-0.144,-0.868,2.087,-192.383,20.081,-18.005
-0.157,-0.940,2.051,-217.285,41.626,-9.094
-0.139,-0.955,1.986,-235.291,66.406,2.563
-0.087,-0.925,1.887,-255.005,88.562,16.541
-0.068,-0.901,1.745,-281.860,105.835,31.128
-0.057,-0.876,1.559,-314.453,119.812,45.227
-0.037,-0.833,1.353,-349.182,129.578,57.556
-0.024,-0.791,1.137,-382.690,135.681,68.054
-0.031,-0.776,0.926,-412.415,139.221,77.637
-0.061,-0.792,0.728,-433.533,140.564,87.952
-0.081,-0.775,0.552,-441.895,141.174,99.182
-0.082,-0.720,0.411,-440.247,143.921,108.154
-0.089,-0.682,0.295,-437.927,148.682,112.732
-0.102,-0.646,0.180,-437.256,154.053,115.845
-0.101,-0.598,0.057,-437.012,158.936,118.774
-0.110,-0.584,-0.068,-442.078,161.194,120.361
-0.147,-0.612,-0.214,-453.796,159.912,121.155
-0.198,-0.667,-0.384,-472.229,158.081,121.216
-0.266,-0.746,-0.565,-496.765,158.813,120.667
-0.358,-0.847,-0.735,-524.841,161.804,121.948
-0.448,-0.973,-0.920,-550.781,164.185,126.831
-0.600,-1.119,-1.107,-573.181,163.330,135.071
-0.744,-1.214,-1.305,-585.876,159.424,145.081
-0.810,-1.229,-1.514,-581.116,154.114,151.611
-0.828,-1.238,-1.742,-563.110,147.888,144.348
-0.878,-1.217,-2.083,-538.452,140.137,121.338
-0.885,-1.139,-2.331,-515.442,129.822,97.168
-0.810,-1.044,-2.500,-477.356,128.418,84.045
-0.712,-0.938,-2.560,-416.626,141.357,73.120
-0.613,-0.815,-2.494,-350.403,152.588,60.730
-0.470,-0.759,-2.369,-297.485,144.958,51.880
-0.234,-0.828,-2.156,-268.494,114.014,47.302
0.019,-0.854,-1.961,-265.930,61.218,50.964
0.158,-0.901,-1.876,-274.963,-9.521,65.552
0.241,-0.942,-1.907,-279.724,-85.266,84.534
0.229,-0.910,-2.035,-276.428,-139.160,99.182
0.070,-0.806,-2.213,-264.587,-154.358,106.628
-0.140,-0.655,-2.410,-242.065,-131.531,112.244
-0.404,-0.472,-2.592,-203.979,-85.510,116.028
-0.649,-0.229,-2.695,-155.945,-32.166,113.770
-0.823,-0.043,-2.705,-111.877,10.803,99.365
-0.882,0.122,-2.591,-58.105,21.484,69.153
-0.825,0.212,-2.480,-13.916,4.883,25.269
-0.549,0.076,-2.285,16.663,-22.766,-22.278
-0.185,-0.156,-2.012,35.706,-43.152,-56.396
0.121,-0.298,-1.745,44.495,-44.800,-66.345
0.301,-0.300,-1.531,46.265,-37.476,-53.040
0.352,-0.214,-1.412,41.748,-27.832,-29.236
0.291,-0.097,-1.388,35.339,-17.944,-7.019
0.207,-0.005,-1.391,32.043,-5.371,5.188
0.142,0.053,-1.381,35.278,9.766,8.301
0.132,0.074,-1.341,41.077,24.231,5.310
0.153,0.050,-1.275,44.556,33.997,-0.366
0.194,0.016,-1.224,45.166,35.645,-5.310
0.223,-0.034,-1.153,44.617,28.748,-9.338
0.230,-0.073,-1.076,43.213,22.400,-8.301
0.224,-0.097,-1.017,39.063,22.034,-2.930
0.158,-0.118,-0.970,32.410,23.560,2.991
0.068,-0.109,-0.938,24.536,25.574,9.399

-0.445,0.166,-2.281,150.574,87.097,-26.611
-0.449,0.120,-2.442,193.359,101.257,-44.983
-0.445,-0.025,-2.570,243.347,112.976,-68.237
-0.460,-0.233,-2.702,287.964,125.305,-91.248
-0.506,-0.390,-2.843,321.838,134.155,-105.408
-0.562,-0.450,-2.975,348.938,136.169,-111.755
-0.597,-0.438,-3.077,368.347,127.563,-117.493
-0.647,-0.448,-3.127,384.827,102.295,-128.418
-0.706,-0.462,-3.100,403.015,63.904,-144.714
-0.747,-0.463,-2.986,427.368,24.292,-164.734
-0.753,-0.502,-2.785,458.313,-6.531,-187.134
-0.726,-0.509,-2.522,490.601,-27.283,-206.360
-0.732,-0.527,-2.282,516.052,-36.682,-217.041
-0.708,-0.574,-2.104,528.625,-34.668,-216.980
-0.643,-0.541,-1.940,532.227,-26.794,-211.609
-0.584,-0.476,-1.730,538.330,-20.935,-208.740
-0.512,-0.461,-1.434,542.664,-23.804,-211.243
-0.486,-0.476,-1.151,540.161,-36.499,-218.262
-0.488,-0.514,-0.881,536.194,-54.077,-228.577
-0.456,-0.608,-0.603,529.785,-75.562,-241.699
-0.411,-0.713,-0.399,520.874,-100.586,-257.568
-0.329,-0.732,-0.251,508.301,-123.291,-276.184
-0.276,-0.860,-0.112,484.619,-139.465,-291.809
-0.148,-0.983,0.010,457.886,-149.780,-289.001
0.035,-1.040,0.151,432.739,-152.039,-267.944
0.219,-1.103,0.333,416.321,-141.785,-235.779
0.387,-1.062,0.454,407.471,-122.192,-195.984
0.386,-0.947,0.472,400.269,-100.403,-156.433
0.337,-0.945,0.414,382.019,-77.332,-116.638
0.275,-0.960,0.327,363.892,-55.908,-81.665
0.231,-0.937,0.247,357.300,-40.527,-58.228
0.175,-0.942,0.256,348.938,-33.875,-45.349
0.125,-0.989,0.357,335.999,-36.987,-39.368
0.087,-1.061,0.496,323.303,-44.495,-38.940
0.027,-1.187,0.676,311.768,-50.720,-42.786
-0.015,-1.370,0.938,301.086,-52.551,-46.936
-0.067,-1.579,1.240,290.771,-49.927,-48.157
-0.170,-1.860,1.532,274.170,-44.617,-47.668
-0.318,-2.207,1.823,252.808,-38.208,-47.363
-0.412,-2.558,2.170,222.595,-27.100,-46.448
-0.288,-2.853,2.555,178.894,-7.935,-44.861
-0.120,-2.819,2.961,124.512,8.972,-46.082
0.204,-2.409,3.291,70.618,7.629,-56.396
0.583,-1.853,3.319,11.353,-0.366,-62.622
0.758,-1.365,2.913,-52.734,-8.118,-51.453
0.721,-0.905,2.263,-115.601,-7.812,-21.118
0.498,-0.509,1.410,-164.612,-2.502,21.118
0.273,-0.191,0.632,-201.660,7.141,69.031
0.154,0.079,0.074,-218.689,26.367,106.873
0.121,0.318,-0.149,-207.153,42.297,121.399
0.097,0.446,-0.127,-177.429,46.082,116.455
0.102,0.433,0.107,-139.648,40.283,104.431
0.102,0.314,0.416,-111.694,34.424,88.623
0.082,0.157,0.777,-96.619,29.358,67.505
0.168,-0.026,1.143,-99.487,22.766,46.753
0.294,-0.234,1.520,-119.812,12.817,24.902
0.360,-0.371,1.794,-153.198,-1.282,7.019
0.385,-0.473,1.882,-193.970,-16.052,-2.502
0.440,-0.568,1.811,-239.136,-25.635,-4.456
0.466,-0.643,1.654,-281.738,-26.489,2.686
0.442,-0.669,1.488,-315.491,-16.846,19.897
0.462,-0.643,1.401,-340.881,2.319,39.978
0.297,-0.692,1.291,-359.131,30.579,55.298
0.204,-0.624,1.188,-357.239,55.115,74.768
0.171,-0.479,1.134,-349.304,68.420,90.088
0.119,-0.426,1.078,-353.455,73.181,92.285
0.079,-0.402,0.971,-368.774,72.815,90.271
0.074,-0.389,0.828,-387.451,70.496,87.280
0.047,-0.404,0.691,-406.677,68.420,84.106
0.016,-0.427,0.568,-421.448,70.251,82.764
0.004,-0.434,0.464,-430.847,73.608,83.496
-0.006,-0.463,0.361,-435.120,74.402,87.402
-0.001,-0.455,0.273,-432.251,72.449,96.069
-0.018,-0.449,0.225,-429.443,73.364,103.333
-0.087,-0.476,0.178,-430.725,80.200,103.821
-0.142,-0.550,0.097,-435.669,89.844,99.670
-0.186,-0.661,-0.057,-441.223,96.191,90.088
-0.221,-0.777,-0.248,-454.407,96.741,77.637
-0.233,-0.949,-0.501,-476.318,91.553,67.261
-0.276,-1.190,-0.802,-503.235,82.520,61.890
-0.288,-1.475,-1.174,-526.184,72.937,64.270
-0.293,-1.582,-1.604,-540.588,60.913,72.754
-0.278,-1.559,-2.086,-543.762,49.133,80.505
-0.131,-1.435,-2.501,-534.851,39.307,83.862
-0.050,-1.304,-2.875,-510.681,27.832,82.214
-0.036,-1.092,-3.197,-462.463,17.700,80.811
0.004,-0.793,-3.349,-392.639,16.418,80.383
0.040,-0.534,-3.317,-315.613,22.461,73.792
0.012,-0.360,-3.184,-247.986,24.658,60.730
-0.069,-0.259,-2.996,-197.510,14.221,50.232
-0.152,-0.170,-2.779,-160.889,-4.395,48.645
-0.268,-0.007,-2.557,-133.484,-21.667,52.673
-0.416,0.199,-2.368,-114.075,-29.053,60.547
-0.525,0.375,-2.219,-104.675,-23.071,68.787
-0.568,0.506,-2.160,-100.220,-7.019,68.604
-0.552,0.566,-2.132,-93.933,10.559,56.641
-0.479,0.561,-2.102,-79.590,24.048,38.086
-0.364,0.521,-1.999,-56.946,28.870,20.142
-0.234,0.446,-1.830,-29.114,25.452,3.052
-0.092,0.362,-1.619,-3.052,13.855,-13.672
0.036,0.279,-1.413,16.235,-2.014,-29.785
0.182,0.183,-1.225,26.794,-16.907,-41.321
0.280,0.081,-1.057,29.541,-27.893,-45.349
0.312,0.009,-0.931,28.687,-32.837,-38.635
0.285,-0.017,-0.818,24.475,-30.762,-21.423
0.227,0.012,-0.756,16.541,-22.583,-0.610
0.148,0.080,-0.737,4.272,-11.902,18.433
0.066,0.126,-0.763,-13.855,-2.625,32.349
0.027,0.160,-0.836,-33.081,4.089,40.771
0.001,0.198,-0.940,-49.805,11.963,43.457
0.013,0.237,-1.083,-61.584,21.667,41.748
0.037,0.271,-1.211,-69.153,30.396,38.452
0.077,0.268,-1.332,-71.594,34.668,32.410
0.099,0.236,-1.407,-66.223,33.081,25.269
0.099,0.232,-1.445,-52.429,27.710,19.714
0.090,0.249,-1.431,-34.729,19.226,14.648
0.073,0.244,-1.362,-19.531,7.324,7.629
0.059,0.215,-1.274,-10.010,-5.493,0.061
0.052,0.198,-1.203,-4.761,-17.395,-5.737

-0.177,0.447,-2.301,53.162,32.593,42.969
-0.270,0.473,-2.412,86.426,38.208,37.903
-0.356,0.479,-2.454,124.695,50.598,28.687
-0.382,0.443,-2.437,166.016,67.200,14.465
-0.357,0.355,-2.422,204.041,83.252,-4.517
-0.343,0.242,-2.452,229.858,94.177,-23.254
-0.323,0.161,-2.540,243.835,95.703,-33.997
-0.280,0.114,-2.714,254.028,88.013,-41.260
-0.277,0.038,-2.929,266.907,70.801,-53.467
-0.277,-0.074,-3.092,288.025,45.349,-70.923
-0.272,-0.209,-3.183,322.754,16.052,-90.088
-0.291,-0.307,-3.123,367.371,-12.268,-109.070
-0.341,-0.413,-2.930,413.025,-35.217,-126.282
-0.371,-0.502,-2.644,455.200,-47.913,-138.855
-0.364,-0.561,-2.310,491.882,-47.058,-148.743
-0.285,-0.556,-2.014,520.020,-33.875,-153.809
-0.270,-0.538,-1.772,536.072,-15.686,-154.053
-0.262,-0.529,-1.560,537.476,-2.319,-153.992
-0.194,-0.477,-1.324,522.095,-3.845,-154.663
-0.116,-0.401,-1.093,494.812,-26.306,-154.724
-0.109,-0.248,-0.958,453.125,-70.618,-155.273
-0.210,-0.089,-0.974,398.132,-135.132,-157.532
-0.324,-0.046,-1.082,343.445,-203.491,-162.415
-0.350,-0.128,-1.067,318.237,-254.089,-173.889
-0.304,-0.291,-0.883,330.811,-271.606,-187.927
-0.236,-0.448,-0.601,358.521,-254.333,-193.176
-0.229,-0.561,-0.427,377.991,-217.834,-184.082
-0.150,-0.607,-0.304,374.939,-186.279,-162.842
-0.088,-0.665,-0.210,360.291,-170.776,-137.451
-0.086,-0.672,-0.192,345.703,-164.368,-109.863
-0.086,-0.731,-0.228,329.956,-158.875,-83.191
-0.146,-0.806,-0.233,326.111,-146.912,-64.636
-0.220,-0.891,-0.164,338.562,-131.287,-49.927
-0.248,-0.953,-0.024,357.178,-122.314,-38.208
-0.280,-1.028,0.139,372.192,-115.051,-34.119
-0.307,-1.141,0.393,383.362,-104.980,-35.156
-0.308,-1.237,0.752,387.756,-98.572,-36.804
-0.335,-1.332,1.128,381.531,-101.501,-37.964
-0.464,-1.467,1.447,364.441,-106.079,-35.339
-0.705,-1.784,1.803,341.431,-100.952,-28.381
-0.904,-2.211,2.273,329.285,-76.050,-25.330
-1.022,-2.622,2.822,317.322,-31.311,-36.316
-1.000,-3.017,3.460,275.574,2.625,-52.124
-0.718,-3.222,4.000,215.271,10.193,-47.180
-0.326,-2.955,4.000,135.681,-0.854,-25.391
0.086,-2.282,4.000,39.185,9.949,-13.611
0.271,-1.610,3.347,-66.101,29.175,-11.353
0.242,-0.999,2.246,-159.607,31.860,0.244
0.234,-0.449,0.965,-223.083,30.518,18.799
0.227,0.047,-0.084,-251.953,24.414,34.119
0.260,0.453,-0.595,-237.793,17.822,44.983
0.400,0.764,-0.692,-180.176,25.208,57.251
0.434,0.998,-0.534,-104.736,37.354,68.298
0.380,1.108,-0.289,-46.875,45.837,74.036
0.272,1.101,-0.050,-12.573,48.218,69.458
0.199,1.010,0.255,7.019,45.166,55.237
0.208,0.880,0.591,9.155,34.607,36.255
0.244,0.718,0.850,-7.446,13.916,20.874
0.198,0.553,0.961,-32.104,-7.263,8.911
0.133,0.410,0.989,-53.894,-23.437,-1.221
0.096,0.255,1.017,-67.566,-27.893,-8.423
0.074,0.112,1.074,-70.496,-19.714,-10.010
0.066,-0.013,1.184,-66.345,-6.592,-6.958
0.064,-0.135,1.330,-62.561,5.554,-3.357
0.026,-0.291,1.449,-60.791,19.714,-1.526
-0.032,-0.473,1.626,-61.279,32.776,1.221
-0.070,-0.616,1.816,-66.956,43.823,5.798
-0.064,-0.696,2.006,-77.637,51.331,7.690
-0.042,-0.738,2.134,-99.365,53.650,5.310
-0.008,-0.766,2.134,-130.981,52.307,1.953
0.019,-0.771,2.014,-166.992,52.246,2.319
0.038,-0.740,1.835,-202.087,58.594,7.996
0.074,-0.682,1.598,-233.643,69.885,18.250
0.094,-0.631,1.352,-261.597,81.116,31.311
0.093,-0.582,1.122,-284.058,91.797,46.875
0.056,-0.554,0.955,-299.500,103.638,63.843
0.034,-0.501,0.829,-308.411,117.432,78.308
0.037,-0.444,0.725,-315.186,129.822,88.257
0.041,-0.413,0.610,-325.745,140.625,94.421
0.049,-0.385,0.496,-335.571,149.048,97.961
0.057,-0.364,0.391,-344.727,152.588,98.633
0.064,-0.371,0.297,-354.980,151.184,97.900
0.059,-0.408,0.197,-365.662,146.790,98.083
0.052,-0.447,0.085,-373.108,141.602,100.098
0.044,-0.463,-0.035,-377.625,136.536,102.478
0.047,-0.475,-0.154,-382.996,131.348,103.699
0.024,-0.475,-0.278,-391.602,126.465,105.652
-0.016,-0.493,-0.402,-405.762,123.718,109.863
-0.041,-0.550,-0.526,-420.898,119.324,115.417
-0.065,-0.647,-0.651,-434.692,110.779,123.413
-0.155,-0.742,-0.791,-451.965,104.309,135.315
-0.266,-0.828,-0.983,-480.103,107.788,153.748
-0.375,-0.949,-1.201,-516.357,115.479,177.185
-0.503,-1.087,-1.452,-545.776,121.399,202.759
-0.601,-1.133,-1.796,-559.387,122.437,226.196
-0.708,-1.051,-2.140,-557.861,110.596,242.493
-0.843,-0.962,-2.470,-535.706,85.022,242.798
-0.918,-0.899,-2.742,-498.779,55.481,222.229
-0.903,-0.812,-2.951,-461.121,33.081,183.472
-0.872,-0.678,-3.133,-415.588,21.179,137.329
-0.834,-0.466,-3.245,-363.953,18.127,97.107
-0.775,-0.285,-3.219,-307.861,12.146,66.223
-0.650,-0.203,-3.098,-249.939,-5.981,43.274
-0.504,-0.107,-2.898,-192.200,-33.447,25.085
-0.359,0.048,-2.674,-138.184,-57.068,10.437
-0.234,0.176,-2.471,-96.191,-68.909,3.174
-0.146,0.222,-2.278,-69.885,-70.679,1.770
-0.131,0.204,-2.109,-52.124,-65.186,2.441
-0.131,0.208,-1.943,-32.593,-54.504,4.395
-0.112,0.237,-1.750,-10.437,-44.861,4.639
-0.095,0.267,-1.555,8.423,-33.569,1.465
-0.054,0.274,-1.385,17.273,-19.470,-1.953
-0.021,0.242,-1.268,19.775,-6.592,-4.700
-0.003,0.205,-1.200,19.165,3.967,-7.202
0.011,0.174,-1.166,12.878,11.963,-8.362
-0.001,0.152,-1.168,3.235,17.090,-7.263
-0.019,0.155,-1.196,-5.981,20.203,-4.089
-0.029,0.174,-1.227,-12.817,22.034,-1.526
-0.024,0.183,-1.251,-17.090,24.048,-0.366

-0.306,0.239,-2.157,61.829,53.040,10.986
-0.348,0.166,-2.224,93.079,51.331,-1.770
-0.392,0.057,-2.285,120.789,48.462,-16.663
-0.443,-0.051,-2.374,142.151,48.157,-28.564
-0.499,-0.156,-2.497,157.410,54.565,-35.339
-0.582,-0.281,-2.673,169.250,69.946,-39.612
-0.672,-0.389,-2.865,182.861,96.313,-43.457
-0.734,-0.464,-3.026,204.163,135.254,-49.194
-0.793,-0.516,-3.124,240.234,179.932,-62.744
-0.862,-0.520,-3.146,287.842,218.567,-85.815
-0.908,-0.509,-3.085,337.891,238.403,-113.647
-0.918,-0.539,-2.893,385.864,228.943,-147.583
-0.956,-0.639,-2.629,423.706,187.073,-191.101
-0.841,-0.770,-2.264,445.251,113.464,-241.211
-0.766,-0.971,-1.923,445.618,29.114,-284.912
-0.650,-1.113,-1.651,431.885,-46.814,-311.890
-0.528,-1.116,-1.471,424.011,-109.924,-322.205
-0.439,-1.044,-1.332,423.950,-150.696,-321.533
-0.346,-0.932,-1.226,429.687,-167.053,-309.875
-0.312,-0.839,-1.120,440.735,-163.757,-294.128
-0.289,-0.760,-0.996,456.177,-151.245,-276.062
-0.273,-0.751,-0.859,468.018,-142.883,-259.216
-0.281,-0.842,-0.665,472.351,-148.804,-249.023
-0.271,-0.920,-0.461,471.924,-164.185,-242.249
-0.281,-0.944,-0.260,464.417,-180.725,-236.206
-0.245,-0.960,-0.086,447.266,-195.862,-229.614
-0.189,-0.972,0.038,428.345,-206.665,-218.384
-0.199,-0.980,0.057,414.856,-205.627,-200.378
-0.175,-0.943,0.097,410.156,-201.172,-184.875
-0.169,-0.884,0.172,411.987,-198.853,-174.377
-0.148,-0.872,0.406,409.485,-196.350,-162.903
-0.055,-0.825,0.599,400.574,-196.106,-149.780
-0.044,-0.792,0.801,387.268,-199.341,-135.559
-0.035,-0.780,1.009,363.953,-195.312,-112.732
-0.133,-0.769,1.112,338.867,-182.678,-83.679
-0.334,-0.818,1.189,317.383,-164.551,-58.167
-0.567,-1.031,1.346,306.519,-140.686,-48.706
-0.814,-1.451,1.751,313.293,-115.601,-56.885
-1.091,-2.043,2.443,333.740,-91.858,-76.355
-1.067,-2.869,3.353,338.074,-81.299,-97.473
-0.764,-3.448,4.000,292.480,-83.923,-109.741
-0.257,-3.109,4.000,208.557,-96.008,-106.567
0.181,-2.128,4.000,109.680,-105.591,-93.506
0.481,-1.298,4.000,-7.385,-91.919,-71.716
0.486,-0.932,3.296,-140.869,-15.747,-47.241
0.353,-0.632,1.794,-240.417,89.966,-29.114
0.138,-0.244,0.271,-276.855,149.841,-3.662
0.140,0.181,-0.714,-275.757,152.527,23.865
0.280,0.490,-0.900,-232.788,120.789,44.006
0.482,0.650,-0.869,-155.640,88.257,61.462
0.432,0.836,-0.638,-74.829,58.777,66.101
0.492,0.931,-0.230,-18.372,34.607,59.875
0.484,0.891,0.234,1.709,25.452,53.345
0.436,0.741,0.558,-8.057,26.062,45.288
0.429,0.495,0.921,-36.560,16.541,37.170
0.409,0.269,1.223,-67.749,-4.883,34.485
0.334,0.115,1.396,-93.872,-26.306,36.987
0.258,-0.002,1.498,-116.089,-39.185,37.231
0.187,-0.115,1.579,-133.667,-40.649,32.715
0.134,-0.223,1.696,-144.714,-33.691,26.733
0.112,-0.305,1.848,-153.015,-21.790,23.682
0.096,-0.364,1.976,-161.194,-5.554,24.963
0.084,-0.410,2.058,-172.913,15.869,28.687
0.074,-0.466,2.089,-189.270,41.565,32.593
0.074,-0.500,2.057,-207.886,68.054,38.452
0.090,-0.500,1.972,-229.431,91.919,48.523
0.089,-0.498,1.818,-253.723,110.229,59.937
0.069,-0.489,1.622,-279.602,121.643,70.313
0.033,-0.474,1.409,-305.603,127.441,79.224
-0.001,-0.449,1.188,-330.261,130.493,85.571
-0.021,-0.421,0.969,-351.685,132.385,88.440
-0.039,-0.404,0.763,-369.690,132.996,88.257
-0.073,-0.405,0.583,-383.362,133.118,85.632
-0.105,-0.429,0.438,-391.479,132.446,81.848
-0.107,-0.470,0.339,-392.273,129.211,77.576
-0.066,-0.554,0.263,-395.569,124.023,73.120
-0.000,-0.623,0.198,-398.621,114.868,71.533
0.017,-0.668,0.126,-404.114,104.736,74.097
-0.037,-0.765,-0.006,-413.086,97.473,80.139
-0.066,-0.883,-0.188,-422.546,93.384,90.515
-0.160,-0.946,-0.429,-435.303,96.741,99.731
-0.254,-0.981,-0.709,-450.500,110.168,105.713
-0.265,-0.994,-1.016,-457.458,125.427,112.610
-0.298,-1.023,-1.266,-456.360,136.658,125.366
-0.382,-1.046,-1.467,-458.130,148.499,138.794
-0.455,-1.074,-1.643,-463.318,160.461,148.254
-0.520,-1.121,-1.838,-464.600,166.504,153.748
-0.541,-1.124,-1.981,-467.102,167.053,157.593
-0.536,-1.097,-2.100,-463.684,167.603,159.424
-0.521,-0.997,-2.188,-441.162,165.527,156.494
-0.507,-0.826,-2.236,-398.315,152.405,151.001
-0.498,-0.629,-2.215,-347.595,121.582,145.386
-0.493,-0.567,-2.167,-301.758,73.792,140.259
-0.548,-0.628,-2.077,-266.541,18.433,136.108
-0.656,-0.717,-1.969,-241.943,-27.710,134.460
-0.734,-0.767,-1.880,-227.173,-59.082,135.986
-0.802,-0.730,-1.818,-218.506,-76.904,133.118
-0.844,-0.614,-1.812,-214.172,-82.092,121.460
-0.825,-0.472,-1.866,-210.876,-78.613,101.196
-0.701,-0.371,-1.954,-207.458,-70.923,75.928
-0.570,-0.347,-2.020,-199.951,-59.875,47.607
-0.481,-0.352,-2.080,-180.298,-45.044,21.912
-0.409,-0.342,-2.109,-146.179,-29.602,6.714
-0.369,-0.346,-2.102,-110.718,-18.433,5.005
-0.336,-0.351,-2.078,-82.214,-11.963,13.000
-0.329,-0.336,-2.043,-59.021,-9.766,23.499
-0.352,-0.279,-2.005,-37.781,-7.324,33.508
-0.388,-0.200,-1.949,-19.470,-3.967,41.443
-0.418,-0.059,-1.889,-3.845,-1.160,45.349
-0.434,0.106,-1.824,10.742,3.113,42.297
-0.409,0.200,-1.744,21.179,9.888,29.602
-0.386,0.157,-1.662,26.001,17.334,9.460
-0.335,0.040,-1.565,29.541,23.804,-9.155
-0.240,-0.025,-1.454,35.339,28.137,-23.804
-0.122,-0.008,-1.365,38.818,28.259,-34.302
-0.012,0.000,-1.303,34.851,23.682,-39.978
0.076,-0.014,-1.250,27.100,16.785,-42.969
0.149,-0.036,-1.229,22.522,11.475,-43.396
0.221,-0.044,-1.229,24.048,10.071,-40.894

-0.522,0.055,-2.266,115.540,15.259,-17.151
-0.590,0.033,-2.464,127.625,24.475,-25.024
-0.642,0.018,-2.708,141.052,30.762,-39.307
-0.665,0.039,-2.994,163.452,35.828,-57.861
-0.694,-0.031,-3.259,197.632,40.833,-81.238
-0.735,-0.197,-3.434,242.798,45.959,-111.328
-0.730,-0.396,-3.459,301.880,53.650,-144.104
-0.682,-0.605,-3.277,371.460,60.730,-173.584
-0.543,-0.807,-2.922,436.707,58.350,-197.388
-0.433,-0.914,-2.435,480.652,37.903,-214.722
-0.386,-0.870,-2.025,498.840,1.465,-218.567
-0.426,-0.739,-1.827,491.943,-39.246,-208.374
-0.501,-0.600,-1.847,461.609,-77.026,-194.031
-0.551,-0.458,-1.983,430.664,-104.919,-179.932
-0.569,-0.361,-2.105,424.683,-113.342,-169.067
-0.557,-0.404,-2.097,440.491,-101.807,-166.260
-0.505,-0.496,-1.922,473.938,-76.721,-169.373
-0.393,-0.598,-1.625,515.686,-46.631,-174.622
-0.298,-0.694,-1.292,542.542,-26.428,-176.697
-0.270,-0.763,-0.989,545.044,-22.949,-173.645
-0.297,-0.759,-0.816,530.029,-33.203,-168.152
-0.376,-0.756,-0.674,507.019,-56.335,-170.105
-0.402,-0.803,-0.585,483.704,-87.952,-182.373
-0.370,-0.844,-0.512,458.008,-120.361,-198.059
-0.282,-0.868,-0.402,427.124,-146.851,-204.468
-0.192,-0.901,-0.290,398.987,-166.931,-202.332
-0.136,-0.943,-0.194,376.709,-187.439,-197.998
-0.074,-0.974,-0.095,361.145,-204.102,-189.087
-0.067,-1.009,0.021,353.943,-211.609,-173.828
-0.093,-1.039,0.136,352.661,-206.299,-153.259
-0.133,-1.101,0.305,351.562,-190.125,-129.639
-0.193,-1.182,0.510,346.802,-167.236,-107.666
-0.267,-1.272,0.705,340.637,-146.667,-93.872
-0.421,-1.429,0.923,336.487,-128.906,-87.280
-0.601,-1.742,1.235,337.158,-114.624,-87.219
-0.789,-2.167,1.745,348.206,-110.413,-99.304
-0.903,-2.772,2.595,369.446,-108.459,-116.638
-0.729,-3.619,3.757,373.962,-106.018,-124.939
-0.565,-3.965,4.000,322.693,-114.563,-110.962
-0.437,-3.608,4.000,228.577,-125.549,-84.229
-0.081,-2.897,4.000,104.492,-108.948,-52.673
0.494,-1.930,4.000,-27.710,-48.340,-16.541
0.611,-1.363,3.688,-160.767,37.537,10.071
0.501,-0.899,2.187,-265.991,115.845,37.354
0.021,-0.462,0.332,-321.716,167.175,82.031
-0.235,0.074,-1.033,-336.609,170.654,131.592
-0.228,0.626,-1.668,-297.424,137.024,147.888
-0.123,1.096,-1.690,-204.468,93.750,129.028
-0.041,1.300,-1.182,-107.544,59.265,90.820
0.047,1.258,-0.600,-38.818,39.185,51.086
0.126,1.034,-0.000,-8.545,31.372,24.475
0.298,0.741,0.605,-11.169,30.762,6.531
0.314,0.498,1.071,-37.292,14.954,0.305
0.318,0.258,1.450,-76.782,-12.329,1.709
0.319,0.100,1.607,-118.958,-30.823,3.906
0.302,-0.051,1.634,-159.119,-33.447,1.099
0.310,-0.193,1.615,-190.613,-25.269,-0.793
0.306,-0.313,1.602,-204.895,-10.803,4.578
0.257,-0.383,1.634,-205.017,5.066,17.761
0.193,-0.440,1.697,-199.280,24.109,34.424
0.188,-0.486,1.790,-194.702,43.579,49.194
0.244,-0.507,1.859,-198.364,65.125,59.692
0.285,-0.510,1.862,-211.121,85.876,67.688
0.281,-0.491,1.768,-233.948,100.891,77.576
0.252,-0.469,1.578,-264.099,110.168,88.196
0.245,-0.465,1.361,-296.814,116.211,96.313
0.234,-0.466,1.149,-327.515,121.033,103.943
0.198,-0.484,0.947,-353.699,124.329,114.563
0.144,-0.507,0.737,-372.742,125.671,128.052
0.058,-0.535,0.563,-388.245,124.390,142.151
-0.055,-0.551,0.399,-397.888,120.239,153.076
-0.167,-0.532,0.236,-402.405,110.962,158.020
-0.223,-0.519,0.104,-405.518,95.886,155.029
-0.265,-0.563,-0.006,-411.194,79.895,146.057
-0.292,-0.650,-0.175,-416.870,71.472,134.094
-0.348,-0.703,-0.417,-421.753,74.951,124.756
-0.402,-0.702,-0.638,-424.072,91.309,118.591
-0.425,-0.684,-0.827,-421.448,108.215,110.779
-0.448,-0.729,-1.012,-418.091,116.638,100.952
-0.519,-0.794,-1.220,-416.870,122.559,92.896
-0.532,-0.836,-1.423,-418.701,132.080,88.440
-0.514,-0.891,-1.575,-420.288,137.695,86.975
-0.503,-0.986,-1.738,-415.955,130.859,91.797
-0.508,-1.062,-1.885,-409.912,112.244,102.539
-0.496,-1.048,-2.003,-407.532,82.947,113.892
-0.449,-0.954,-2.140,-404.175,48.950,118.042
-0.436,-0.859,-2.281,-399.292,17.761,114.929
-0.449,-0.761,-2.424,-388.733,-3.723,109.192
-0.479,-0.650,-2.534,-363.770,-13.245,106.812
-0.479,-0.470,-2.544,-322.998,-13.428,108.826
-0.498,-0.282,-2.448,-274.231,-11.536,107.422
-0.554,-0.171,-2.315,-227.600,-13.306,97.839
-0.571,-0.078,-2.192,-186.218,-23.865,79.224
-0.491,-0.023,-2.064,-154.541,-40.894,53.955
-0.381,-0.022,-1.981,-139.404,-50.537,31.189
-0.310,-0.031,-1.967,-136.597,-50.537,18.250
-0.270,-0.001,-1.993,-136.047,-45.227,17.090
-0.248,0.093,-2.030,-131.714,-38.513,24.658
-0.244,0.176,-2.061,-124.634,-31.006,33.020
-0.258,0.229,-2.098,-114.624,-20.508,37.659
-0.280,0.264,-2.116,-97.168,-9.399,36.865
-0.286,0.291,-2.102,-73.059,1.343,32.532
-0.313,0.277,-2.058,-44.861,11.597,27.100
-0.346,0.267,-1.974,-16.479,17.578,22.339
-0.364,0.265,-1.839,9.583,19.104,16.357
-0.352,0.249,-1.706,28.687,17.273,6.714
-0.332,0.223,-1.593,41.138,9.888,-5.188
-0.279,0.180,-1.473,46.021,-3.235,-17.334
-0.209,0.114,-1.335,43.457,-17.212,-26.917
-0.151,0.076,-1.234,39.307,-26.428,-30.151
-0.110,0.084,-1.152,36.194,-29.236,-28.442
-0.086,0.093,-1.082,33.508,-25.757,-24.719
-0.068,0.083,-1.030,28.564,-18.433,-21.179
-0.058,0.066,-1.012,22.522,-11.597,-18.616
-0.037,0.054,-1.016,17.822,-6.653,-15.991
-0.014,0.041,-1.029,13.550,-2.869,-12.390
-0.001,0.048,-1.040,10.681,0.366,-7.385
0.000,0.070,-1.057,8.850,4.333,-2.380
-0.012,0.089,-1.069,7.507,6.531,1.526

-0.343,0.256,-2.077,126.160,23.010,-13.367
-0.366,0.265,-2.239,138.550,24.231,-10.986
-0.410,0.312,-2.462,156.006,26.978,-9.949
-0.469,0.294,-2.684,184.204,25.635,-17.639
-0.513,0.196,-2.872,222.900,17.639,-33.997
-0.547,0.095,-3.037,270.630,5.676,-53.223
-0.587,-0.022,-3.132,323.975,-8.789,-75.317
-0.645,-0.166,-3.063,382.629,-20.264,-94.849
-0.685,-0.315,-2.874,443.359,-16.113,-106.812
-0.682,-0.397,-2.690,494.080,-0.305,-110.840
-0.597,-0.401,-2.567,529.358,15.137,-109.558
-0.481,-0.360,-2.491,550.171,24.414,-109.863
-0.439,-0.225,-2.546,551.025,21.790,-107.727
-0.482,-0.088,-2.643,539.917,-2.930,-105.225
-0.499,-0.009,-2.548,534.729,-43.823,-108.582
-0.542,-0.004,-2.334,541.870,-68.237,-122.253
-0.518,-0.052,-2.031,555.603,-72.754,-142.212
-0.443,-0.171,-1.731,564.087,-63.477,-164.917
-0.312,-0.304,-1.452,559.387,-44.434,-177.795
-0.218,-0.390,-1.271,545.227,-31.616,-182.251
-0.216,-0.491,-1.111,527.466,-35.889,-187.012
-0.234,-0.557,-0.961,508.179,-49.622,-195.679
-0.254,-0.676,-0.803,492.004,-68.237,-212.402
-0.241,-0.835,-0.565,476.990,-92.896,-232.178
-0.172,-1.016,-0.272,457.336,-117.859,-250.427
-0.038,-1.162,-0.007,433.044,-145.020,-262.878
0.044,-1.206,0.108,408.447,-174.500,-264.526
0.069,-1.275,0.143,382.812,-194.641,-250.061
0.088,-1.431,0.175,358.093,-199.646,-217.407
-0.101,-1.500,0.168,341.431,-192.139,-171.021
-0.338,-1.575,0.165,332.336,-170.105,-125.488
-0.558,-1.792,0.306,331.116,-145.081,-98.022
-0.662,-2.032,0.667,343.079,-127.808,-89.355
-0.695,-2.274,1.142,358.948,-113.342,-88.318
-0.770,-2.467,1.651,365.723,-97.717,-84.900
-0.713,-2.740,2.170,358.521,-74.097,-70.068
-0.553,-2.889,2.718,330.933,-44.617,-45.959
-0.393,-3.031,3.170,277.100,-26.184,-25.696
-0.310,-2.978,3.334,208.740,-11.902,-4.272
-0.207,-2.539,3.112,134.399,6.104,22.583
-0.093,-1.958,2.601,51.270,21.240,43.518
-0.095,-1.329,1.945,-21.301,25.757,44.800
-0.098,-0.749,1.295,-73.059,23.254,37.842
-0.025,-0.310,0.866,-108.154,19.470,32.898
0.118,-0.019,0.605,-125.549,21.912,27.039
0.221,0.178,0.476,-126.160,19.897,21.545
0.274,0.290,0.486,-120.422,9.399,20.752
0.288,0.333,0.579,-113.647,3.845,23.071
0.246,0.321,0.707,-108.765,5.554,24.292
0.196,0.237,0.870,-109.070,6.470,22.278
0.154,0.094,1.021,-116.638,4.456,17.944
0.045,-0.135,1.208,-131.409,1.038,10.803
-0.088,-0.415,1.385,-150.879,-1.404,2.441
-0.183,-0.613,1.577,-169.739,-5.188,-7.446
-0.171,-0.768,1.740,-188.416,-12.451,-29.114
-0.076,-0.941,1.854,-209.045,-20.142,-53.772
-0.006,-1.065,1.891,-224.609,-16.663,-62.866
0.056,-1.106,1.876,-233.887,1.709,-51.147
0.105,-1.090,1.856,-243.347,25.391,-26.489
0.119,-1.061,1.808,-257.874,48.218,2.686
0.126,-1.011,1.694,-280.212,68.542,32.410
0.080,-0.996,1.514,-308.350,83.679,59.998
-0.008,-0.991,1.332,-337.402,93.140,84.595
-0.090,-0.953,1.166,-361.145,98.999,106.445
-0.132,-0.889,1.013,-382.141,104.126,121.399
-0.151,-0.838,0.862,-403.625,105.713,127.014
-0.149,-0.809,0.709,-428.711,104.187,127.930
-0.144,-0.794,0.539,-455.322,103.516,127.625
-0.161,-0.810,0.359,-481.934,103.943,126.465
-0.185,-0.809,0.183,-504.456,102.661,125.427
-0.204,-0.814,0.007,-523.865,99.304,124.146
-0.224,-0.836,-0.175,-542.542,99.915,121.704
-0.247,-0.881,-0.373,-558.533,106.812,120.056
-0.289,-0.961,-0.596,-570.129,116.333,120.117
-0.362,-1.085,-0.831,-579.773,127.869,122.620
-0.493,-1.219,-1.105,-582.703,140.381,127.075
-0.536,-1.227,-1.427,-568.359,149.231,130.798
-0.562,-1.200,-1.755,-549.133,153.442,126.343
-0.614,-1.193,-2.090,-534.302,151.367,117.859
-0.592,-1.181,-2.369,-519.714,146.057,111.938
-0.569,-1.203,-2.616,-502.808,144.165,104.431
-0.569,-1.199,-2.803,-486.755,146.912,97.229
-0.527,-1.072,-2.881,-469.543,152.039,97.900
-0.446,-0.907,-2.897,-447.144,152.100,101.257
-0.426,-0.800,-2.905,-420.654,136.902,100.525
-0.447,-0.672,-2.928,-387.939,104.858,97.534
-0.451,-0.496,-2.927,-344.421,62.073,92.529
-0.454,-0.346,-2.881,-291.809,14.160,86.792
-0.438,-0.157,-2.786,-228.882,-32.104,82.764
-0.405,0.053,-2.620,-161.316,-68.726,74.402
-0.393,0.162,-2.398,-104.980,-90.881,58.472
-0.387,0.170,-2.162,-66.223,-99.976,40.710
-0.342,0.132,-1.942,-40.222,-97.473,26.428
-0.290,0.099,-1.742,-19.470,-86.182,17.029
-0.245,0.092,-1.556,-4.272,-68.054,15.381
-0.216,0.116,-1.391,1.221,-46.509,21.057
-0.213,0.132,-1.252,-3.174,-28.259,28.137
-0.212,0.142,-1.168,-14.404,-16.724,30.945
-0.200,0.189,-1.124,-28.381,-10.254,26.978
-0.181,0.212,-1.132,-42.297,-6.226,19.348
-0.145,0.185,-1.181,-55.664,-4.578,12.085
-0.099,0.153,-1.234,-65.308,-6.104,7.446
-0.046,0.145,-1.303,-67.749,-5.859,5.554
0.006,0.147,-1.355,-64.392,-1.648,6.042
0.033,0.156,-1.395,-58.167,3.052,6.958
0.036,0.154,-1.419,-51.086,4.944,6.592
0.030,0.137,-1.436,-44.189,4.333,5.554
0.001,0.115,-1.433,-36.743,1.892,3.967
-0.044,0.099,-1.416,-30.090,-3.479,2.563
-0.094,0.081,-1.385,-25.879,-11.719,1.587
-0.137,0.083,-1.355,-23.254,-20.386,0.793
-0.167,0.099,-1.337,-20.325,-27.344,-1.282
-0.169,0.103,-1.325,-16.724,-32.288,-2.991
-0.171,0.114,-1.312,-11.597,-34.119,-4.944
-0.155,0.109,-1.297,-6.165,-30.273,-7.446
-0.132,0.084,-1.280,-1.282,-22.522,-10.010
-0.121,0.049,-1.270,3.906,-12.390,-10.559
-0.123,0.031,-1.251,10.132,-0.916,-7.690
-0.142,0.040,-1.218,17.151,11.230,-3.052

-0.389,0.381,-2.032,73.486,46.692,6.775
-0.481,0.378,-2.121,97.229,53.345,-3.479
-0.552,0.322,-2.214,121.887,58.411,-17.029
-0.544,0.205,-2.308,142.151,62.683,-28.198
-0.411,0.037,-2.368,152.954,65.674,-30.884
-0.220,-0.085,-2.484,154.846,65.186,-23.071
-0.337,-0.014,-2.808,157.166,50.903,-8.728
-0.598,0.177,-3.269,173.889,25.818,0.305
-0.825,0.255,-3.620,222.168,11.841,-11.597
-0.958,0.042,-3.716,298.340,19.531,-54.382
-0.929,-0.504,-3.529,376.282,39.429,-112.549
-0.691,-0.970,-3.138,437.134,53.894,-162.292
-0.555,-1.010,-2.796,486.084,50.476,-195.923
-0.510,-0.931,-2.469,517.700,22.949,-217.224
-0.461,-0.897,-2.125,528.687,-18.860,-231.140
-0.400,-0.855,-1.804,536.194,-57.129,-242.310
-0.347,-0.792,-1.525,540.649,-80.566,-247.253
-0.304,-0.751,-1.317,543.030,-87.158,-242.126
-0.266,-0.739,-1.202,547.852,-75.745,-228.943
-0.256,-0.755,-1.132,554.626,-47.668,-211.365
-0.170,-0.821,-1.071,553.772,-14.038,-189.880
-0.072,-0.748,-0.997,538.635,8.423,-167.236
-0.069,-0.612,-0.924,519.714,9.705,-151.672
-0.117,-0.535,-0.820,500.549,-18.372,-148.621
-0.187,-0.555,-0.703,480.957,-72.144,-159.363
-0.246,-0.626,-0.571,463.013,-127.991,-176.270
-0.291,-0.678,-0.469,448.975,-166.443,-188.599
-0.339,-0.761,-0.432,434.814,-184.326,-192.871
-0.263,-0.812,-0.453,418.152,-183.105,-183.716
-0.163,-0.812,-0.514,409.058,-160.522,-164.734
-0.048,-0.841,-0.563,409.363,-128.174,-136.780
0.131,-0.813,-0.598,420.166,-101.746,-98.206
0.056,-0.709,-0.542,441.223,-88.501,-61.462
-0.179,-0.699,-0.367,460.327,-80.444,-28.931
-0.490,-0.841,-0.031,472.351,-72.510,-11.292
-0.892,-1.129,0.365,479.126,-57.434,-25.024
-1.106,-1.663,0.725,471.497,-32.837,-66.223
-1.160,-2.487,1.084,439.758,-12.817,-125.305
-0.834,-3.355,1.860,393.860,-22.827,-165.894
-0.518,-4.000,2.880,339.722,-74.768,-156.982
-0.121,-4.000,3.999,260.132,-115.479,-133.240
0.444,-4.000,4.000,170.471,-103.577,-109.314
0.887,-4.000,4.000,67.078,-47.119,-86.121
1.067,-3.378,4.000,-57.678,0.061,-51.575
1.151,-2.466,3.552,-160.889,21.118,-5.127
0.646,-1.531,1.647,-223.389,65.308,30.029
-0.161,-0.555,-0.217,-260.620,135.620,80.994
-0.440,0.306,-1.257,-263.733,168.518,133.362
-0.301,1.062,-1.637,-210.144,155.151,149.902
-0.268,1.389,-1.339,-127.563,106.567,121.155
-0.156,1.408,-0.669,-54.260,52.856,75.439
-0.023,1.217,0.082,-11.780,24.780,36.499
0.115,0.918,0.688,-12.268,14.709,7.141
0.259,0.616,1.071,-42.969,0.916,-5.188
0.287,0.358,1.205,-85.144,-18.494,-4.944
0.241,0.133,1.197,-119.812,-32.166,-6.775
0.200,-0.062,1.194,-135.742,-34.668,-17.944
0.243,-0.242,1.251,-139.038,-27.832,-27.710
0.297,-0.512,1.366,-139.648,-17.212,-29.724
0.350,-0.664,1.471,-137.329,-4.395,-18.982
0.379,-0.699,1.621,-139.832,6.958,-4.333
0.385,-0.736,1.705,-151.367,16.357,5.127
0.368,-0.769,1.724,-171.936,24.719,17.822
0.350,-0.773,1.670,-195.618,33.447,32.654
0.307,-0.751,1.557,-217.834,43.335,46.631
0.267,-0.731,1.416,-237.000,53.162,58.472
0.247,-0.697,1.267,-250.610,62.500,66.650
0.222,-0.632,1.141,-258.728,70.984,72.449
0.190,-0.579,1.021,-265.259,78.552,77.576
0.161,-0.522,0.906,-271.667,85.815,82.642
0.126,-0.478,0.804,-278.687,94.788,88.074
0.116,-0.460,0.718,-286.926,104.736,95.093
0.105,-0.448,0.645,-296.082,110.840,104.187
0.057,-0.438,0.570,-306.946,112.305,115.479
0.012,-0.439,0.489,-320.129,111.145,126.770
-0.010,-0.457,0.373,-333.008,110.107,137.573
-0.052,-0.459,0.246,-341.675,111.877,149.658
-0.080,-0.417,0.119,-349.548,117.798,167.236
-0.131,-0.375,-0.041,-360.901,123.535,188.599
-0.251,-0.314,-0.246,-376.160,129.883,209.290
-0.370,-0.300,-0.438,-393.921,144.043,228.577
-0.458,-0.303,-0.595,-410.217,157.227,239.136
-0.517,-0.316,-0.735,-419.739,155.640,242.676
-0.542,-0.350,-0.855,-428.467,139.282,243.652
-0.542,-0.421,-0.956,-439.941,113.220,239.868
-0.547,-0.516,-1.054,-454.346,81.177,231.384
-0.560,-0.660,-1.146,-472.473,50.903,224.365
-0.494,-0.822,-1.404,-499.512,31.860,222.229
-0.627,-1.036,-1.432,-544.556,26.489,222.168
-0.702,-1.276,-1.818,-568.176,26.489,229.187
-0.818,-1.448,-2.142,-586.609,22.400,239.868
-0.839,-1.510,-2.526,-577.087,17.029,248.657
-0.859,-1.356,-2.833,-530.029,5.249,256.226
-0.882,-1.034,-3.009,-468.201,-11.169,265.076
-0.911,-0.645,-3.063,-397.644,-29.480,259.705
-0.941,-0.282,-3.013,-325.439,-46.265,234.070
-0.968,0.005,-2.903,-261.475,-58.472,197.327
-0.948,0.173,-2.765,-210.327,-64.575,158.447
-0.877,0.210,-2.621,-170.227,-64.880,118.896
-0.811,0.126,-2.489,-139.954,-61.401,81.421
-0.735,0.050,-2.339,-114.136,-54.749,56.396
-0.687,0.069,-2.180,-88.074,-46.936,45.410
-0.685,0.145,-2.017,-62.622,-41.138,41.687
-0.687,0.219,-1.859,-41.260,-36.316,39.429
-0.670,0.294,-1.701,-22.156,-31.128,32.043
-0.632,0.321,-1.563,-7.202,-24.719,19.409
-0.568,0.277,-1.453,0.732,-16.235,4.028
-0.472,0.200,-1.370,3.845,-5.493,-10.254
-0.373,0.130,-1.309,4.639,5.981,-22.339
-0.282,0.081,-1.282,4.150,17.151,-28.992
-0.231,0.058,-1.260,3.906,23.804,-29.236
-0.208,0.067,-1.233,4.883,23.560,-24.414
-0.205,0.066,-1.193,6.348,17.212,-18.494
-0.203,0.027,-1.146,5.554,7.080,-13.672
-0.209,-0.018,-1.104,3.296,-2.563,-9.521
-0.226,0.003,-1.091,1.465,-10.193,-4.333
-0.250,0.121,-1.166,-1.892,-15.503,-0.488
-0.364,0.320,-1.687,-7.507,-27.527,-1.953
-0.429,0.022,-1.446,6.165,-48.401,-5.371

-0.615,0.065,-2.678,25.208,42.542,33.142
-0.963,0.171,-3.360,34.058,46.997,40.039
-1.342,0.240,-3.965,72.266,61.096,28.564
-1.608,0.218,-4.000,154.236,89.172,-9.033
-1.592,-0.025,-4.000,261.902,117.126,-69.336
-1.376,-0.490,-3.748,360.535,126.526,-138.855
-0.983,-0.952,-3.152,426.086,117.432,-197.205
-0.720,-1.150,-2.635,458.923,89.478,-234.131
-0.491,-1.169,-2.195,473.450,43.945,-244.995
-0.332,-1.125,-1.814,471.741,-2.563,-235.046
-0.309,-1.023,-1.530,462.585,-36.133,-215.515
-0.336,-0.948,-1.347,454.407,-50.110,-195.190
-0.384,-0.945,-1.330,448.120,-40.955,-178.101
-0.443,-0.879,-1.405,441.589,-11.963,-164.917
-0.464,-0.677,-1.476,447.632,31.799,-155.273
-0.437,-0.569,-1.476,464.294,80.627,-151.245
-0.410,-0.593,-1.392,480.286,114.319,-155.762
-0.345,-0.652,-1.205,491.150,123.657,-168.640
-0.255,-0.713,-0.960,494.141,111.389,-184.814
-0.232,-0.825,-0.768,481.140,82.825,-197.083
-0.270,-0.844,-0.647,451.050,47.363,-197.571
-0.303,-0.703,-0.613,421.265,18.738,-189.636
-0.274,-0.621,-0.583,405.518,4.517,-188.171
-0.230,-0.687,-0.518,398.315,8.850,-184.082
-0.161,-0.722,-0.415,391.296,26.367,-166.199
-0.219,-0.726,-0.312,388.245,36.804,-147.278
-0.230,-0.753,-0.176,383.606,28.320,-138.306
-0.131,-0.831,-0.056,366.394,11.719,-139.771
-0.075,-0.891,-0.040,343.323,-4.822,-146.240
-0.029,-0.952,-0.046,322.937,-18.860,-155.212
0.074,-1.009,-0.031,310.852,-29.480,-170.227
0.252,-1.115,0.103,313.171,-37.964,-191.467
0.480,-1.288,0.448,327.637,-45.288,-209.656
0.641,-1.531,0.886,347.778,-55.176,-212.341
0.722,-1.821,1.484,374.207,-72.876,-202.209
0.684,-2.223,2.263,394.714,-96.985,-195.435
0.553,-2.893,3.152,384.033,-136.597,-198.975
0.568,-3.546,3.998,342.102,-185.425,-210.083
0.590,-3.637,4.000,269.531,-205.505,-206.970
0.821,-2.950,4.000,158.203,-168.335,-171.936
0.963,-2.321,4.000,23.804,-90.759,-123.962
0.901,-1.873,3.530,-99.426,-1.892,-63.538
0.665,-1.218,2.147,-175.110,77.942,11.108
0.296,-0.515,0.867,-212.097,130.310,86.548
-0.010,0.126,0.026,-218.262,144.897,141.174
-0.080,0.649,-0.347,-187.317,136.902,163.025
-0.119,0.979,-0.467,-138.855,122.192,155.884
-0.181,1.148,-0.382,-94.360,93.506,130.981
-0.212,1.203,-0.154,-64.392,51.331,100.281
-0.209,1.211,0.057,-53.101,14.221,67.444
-0.201,1.179,0.182,-53.711,-9.277,31.860
-0.058,1.014,0.340,-57.251,-31.250,-0.854
0.131,0.809,0.550,-59.692,-47.913,-20.935
0.242,0.611,0.706,-61.279,-54.626,-31.433
0.336,0.455,0.869,-60.730,-59.021,-36.560
0.425,0.295,1.032,-60.547,-64.697,-41.443
0.516,0.091,1.213,-62.012,-67.139,-46.753
0.633,-0.096,1.405,-63.843,-63.599,-49.500
0.722,-0.263,1.583,-68.176,-57.434,-44.250
0.729,-0.403,1.733,-77.637,-50.232,-29.419
0.685,-0.469,1.807,-86.670,-41.626,-9.827
0.624,-0.465,1.831,-96.497,-31.860,6.226
0.561,-0.472,1.805,-114.197,-20.386,20.630
0.503,-0.469,1.719,-135.376,-8.423,32.471
0.463,-0.437,1.563,-155.640,-0.732,41.870
0.389,-0.387,1.344,-173.767,3.357,50.720
0.298,-0.316,1.123,-183.716,4.150,56.946
0.217,-0.205,0.943,-182.678,5.066,57.007
0.119,-0.127,0.799,-175.354,11.536,50.232
0.018,-0.077,0.672,-161.499,23.926,36.926
-0.020,-0.037,0.584,-140.808,38.757,20.630
0.024,-0.015,0.566,-122.314,53.467,5.615
0.094,-0.026,0.532,-112.366,69.824,-3.113
0.162,-0.048,0.496,-112.183,85.510,-4.150
0.210,-0.057,0.443,-116.089,94.604,1.587
0.224,-0.051,0.411,-121.643,94.788,12.146
0.235,-0.039,0.338,-129.517,87.463,21.057
0.210,0.003,0.270,-139.343,77.820,29.785
0.176,0.027,0.215,-154.175,71.655,41.565
0.185,0.010,0.186,-172.546,65.735,55.359
0.243,-0.004,0.225,-197.205,55.542,71.777
0.259,-0.041,0.226,-234.619,40.039,97.717
0.148,-0.109,0.132,-283.936,24.170,131.714
-0.014,-0.183,-0.072,-335.754,20.325,168.091
-0.219,-0.209,-0.340,-377.502,26.245,200.806
-0.334,-0.191,-0.571,-411.865,33.264,229.370
-0.393,-0.224,-0.746,-445.618,41.138,252.808
-0.470,-0.303,-0.923,-476.013,55.664,280.029
-0.593,-0.336,-1.232,-501.953,75.073,312.439
-0.844,-0.123,-1.731,-521.667,78.003,333.557
-1.135,0.031,-2.080,-527.100,42.908,332.153
-1.297,0.105,-2.268,-498.291,-17.090,302.612
-1.270,0.260,-2.275,-432.068,-75.989,239.319
-1.090,0.404,-2.116,-354.126,-113.953,153.625
-0.834,0.371,-1.856,-294.800,-124.084,75.745
-0.546,0.247,-1.573,-264.404,-118.225,27.710
-0.359,0.133,-1.443,-260.681,-109.253,10.742
-0.349,0.125,-1.469,-277.832,-107.971,18.555
-0.315,0.157,-1.555,-298.767,-110.413,39.490
-0.334,0.246,-1.666,-314.087,-99.609,62.744
-0.344,0.304,-1.756,-316.528,-78.491,77.393
-0.379,0.319,-1.850,-303.711,-51.392,83.374
-0.404,0.403,-1.954,-272.095,-20.935,85.876
-0.401,0.550,-2.058,-224.915,5.920,83.313
-0.409,0.653,-2.082,-172.668,23.865,74.890
-0.377,0.657,-1.998,-125.244,26.611,57.922
-0.302,0.620,-1.881,-87.219,13.550,35.583
-0.246,0.540,-1.764,-62.744,-11.169,15.930
-0.208,0.480,-1.678,-52.551,-41.687,4.395
-0.193,0.480,-1.627,-52.124,-68.665,-0.732
-0.203,0.476,-1.611,-54.260,-84.473,-0.549
-0.250,0.559,-1.625,-52.856,-82.214,5.920
-0.306,0.593,-1.646,-50.781,-67.200,3.967
-0.288,0.558,-1.653,-43.518,-50.720,-4.211
-0.193,0.509,-1.615,-26.306,-35.522,-13.306
-0.120,0.442,-1.546,-2.808,-19.348,-21.912
-0.109,0.381,-1.448,21.667,-3.662,-26.062
-0.104,0.318,-1.309,41.992,5.615,-25.635
-0.108,0.298,-1.155,54.016,7.080,-23.071

-0.440,0.438,-2.219,74.951,-14.893,15.564
-0.590,0.536,-2.436,102.051,-9.766,12.024
-0.641,0.580,-2.641,137.573,4.761,-1.221
-0.623,0.478,-2.826,175.964,21.606,-23.865
-0.531,0.311,-2.937,212.585,29.724,-49.561
-0.401,0.152,-2.968,252.319,29.419,-68.542
-0.305,0.052,-2.920,290.588,22.156,-77.393
-0.275,-0.004,-2.842,319.946,11.780,-77.454
-0.302,-0.065,-2.879,342.468,7.263,-75.317
-0.326,-0.108,-2.954,358.765,11.414,-73.486
-0.284,-0.129,-2.992,380.554,24.292,-74.829
-0.230,-0.164,-2.985,410.400,38.818,-82.581
-0.199,-0.251,-2.873,443.970,43.335,-93.567
-0.163,-0.354,-2.675,483.459,39.978,-108.765
-0.156,-0.447,-2.411,524.353,41.077,-127.380
-0.116,-0.569,-2.094,561.340,50.537,-140.930
-0.049,-0.735,-1.682,592.041,61.401,-151.733
-0.005,-0.825,-1.255,608.093,58.411,-160.095
-0.103,-0.838,-0.911,600.403,33.630,-164.368
-0.178,-0.816,-0.645,573.303,-5.005,-170.166
-0.238,-0.853,-0.430,535.400,-49.011,-184.875
-0.262,-0.896,-0.293,497.375,-90.576,-207.520
-0.257,-0.952,-0.187,465.942,-123.901,-227.478
-0.119,-0.978,-0.087,441.223,-143.433,-236.633
-0.055,-1.005,-0.158,414.734,-146.362,-232.605
0.018,-1.049,-0.167,397.705,-145.081,-213.684
0.036,-1.115,-0.009,395.813,-138.611,-183.960
0.012,-1.125,0.258,398.865,-128.418,-148.315
-0.115,-1.155,0.563,392.090,-120.605,-116.089
-0.318,-1.128,0.775,373.962,-115.173,-89.111
-0.534,-1.135,0.878,344.727,-112.793,-70.251
-0.603,-1.239,0.995,314.514,-108.093,-65.002
-0.609,-1.359,1.090,297.485,-93.750,-68.726
-0.606,-1.463,1.257,292.419,-72.021,-71.533
-0.548,-1.597,1.505,293.823,-53.101,-74.097
-0.494,-1.754,1.775,293.701,-33.752,-73.669
-0.388,-1.971,2.149,283.508,-9.521,-67.444
-0.309,-2.184,2.546,260.864,11.658,-54.138
-0.249,-2.354,2.942,224.426,26.367,-37.720
-0.181,-2.374,3.201,170.898,38.208,-23.682
-0.033,-2.254,3.219,104.187,45.654,-16.541
0.110,-1.991,2.966,35.706,47.302,-12.756
0.285,-1.643,2.527,-26.489,48.157,-3.601
0.379,-1.216,2.005,-78.247,48.828,4.761
0.448,-0.761,1.449,-113.464,43.152,10.986
0.500,-0.359,0.990,-137.939,33.997,19.348
0.529,0.020,0.611,-153.503,29.724,29.785
0.515,0.334,0.286,-159.241,25.879,37.903
0.482,0.569,0.075,-152.527,15.808,40.894
0.443,0.714,0.014,-135.071,5.615,39.917
0.406,0.784,0.095,-111.328,1.526,35.645
0.364,0.788,0.259,-89.294,0.061,28.259
0.330,0.688,0.449,-74.646,-1.709,18.799
0.308,0.546,0.664,-66.223,-2.197,9.094
0.322,0.390,0.901,-64.148,-4.272,0.793
0.307,0.183,1.114,-72.571,-9.827,-2.075
0.211,-0.064,1.342,-89.233,-12.573,0.610
0.153,-0.260,1.564,-108.765,-7.080,5.676
0.160,-0.406,1.755,-128.967,0.488,6.897
0.153,-0.551,1.894,-152.222,4.211,5.554
0.174,-0.678,1.962,-175.964,7.446,7.324
0.210,-0.758,1.986,-198.669,13.672,13.184
0.238,-0.780,1.929,-217.590,22.034,22.644
0.205,-0.736,1.786,-234.924,29.907,35.461
0.193,-0.669,1.612,-254.517,37.109,50.110
0.183,-0.620,1.418,-277.283,42.908,63.232
0.157,-0.590,1.240,-298.645,46.448,73.059
0.135,-0.586,1.114,-316.711,48.950,83.008
0.124,-0.580,1.039,-334.045,53.162,94.238
0.115,-0.563,0.964,-354.065,59.631,105.530
0.105,-0.580,0.860,-378.052,64.575,116.638
0.087,-0.608,0.741,-401.794,67.810,127.197
0.069,-0.615,0.601,-423.035,69.458,135.498
0.033,-0.642,0.435,-442.200,67.749,141.418
0.013,-0.676,0.263,-457.458,62.195,146.484
0.003,-0.675,0.080,-468.567,53.650,148.437
-0.028,-0.676,-0.097,-478.027,43.579,146.118
-0.031,-0.715,-0.258,-485.107,33.386,139.832
-0.012,-0.794,-0.375,-489.258,24.414,132.324
-0.008,-0.875,-0.506,-488.525,21.423,126.404
0.002,-0.924,-0.652,-483.826,24.475,121.704
-0.032,-0.984,-0.853,-483.643,27.039,121.765
-0.135,-1.040,-1.064,-494.507,26.550,128.235
-0.149,-1.060,-1.374,-503.723,23.010,131.836
-0.232,-1.137,-1.812,-507.019,11.230,128.174
-0.361,-1.193,-2.263,-511.719,3.723,123.169
-0.464,-1.078,-2.607,-495.605,16.052,119.080
-0.487,-0.831,-2.772,-431.946,41.321,107.666
-0.522,-0.618,-2.679,-347.046,55.298,90.149
-0.530,-0.614,-2.445,-283.081,36.438,70.313
-0.512,-0.746,-2.243,-254.089,-1.648,52.979
-0.523,-0.779,-2.136,-250.916,-36.987,41.992
-0.517,-0.656,-2.181,-259.949,-62.195,35.034
-0.492,-0.452,-2.311,-269.043,-79.407,26.855
-0.372,-0.226,-2.432,-267.883,-84.778,18.921
-0.174,-0.060,-2.542,-250.732,-70.923,11.292
-0.010,0.013,-2.570,-221.313,-45.898,4.089
0.054,0.068,-2.544,-183.167,-21.912,4.578
0.006,0.127,-2.457,-141.541,-5.188,15.137
-0.134,0.196,-2.295,-104.370,1.221,29.053
-0.294,0.299,-2.104,-74.158,-1.404,37.415
-0.389,0.366,-1.904,-54.199,-9.949,33.325
-0.386,0.359,-1.726,-46.814,-23.437,20.081
-0.318,0.323,-1.603,-48.889,-40.161,4.639
-0.198,0.320,-1.514,-53.101,-57.861,-8.545
-0.044,0.283,-1.459,-52.551,-68.481,-19.897
0.077,0.249,-1.426,-49.255,-64.331,-23.010
0.135,0.223,-1.410,-43.640,-48.035,-19.226
0.155,0.183,-1.405,-34.363,-26.245,-13.306
0.156,0.161,-1.390,-22.400,-4.700,-7.202
0.123,0.171,-1.354,-10.315,13.489,-2.563
0.083,0.186,-1.318,0.061,26.245,0.061
0.041,0.201,-1.284,4.639,28.015,-0.488
0.072,0.167,-1.245,4.944,18.738,-4.761
0.111,0.138,-1.215,1.709,4.822,-8.118
0.134,0.130,-1.224,-5.188,-7.874,-9.155
0.142,0.118,-1.246,-11.963,-20.325,-10.376
0.158,0.101,-1.248,-13.672,-29.236,-10.315
0.152,0.097,-1.240,-9.399,-29.907,-6.958

-0.266,0.212,-2.217,111.328,58.411,-7.568
-0.201,0.161,-2.413,125.671,48.828,-19.409
-0.141,0.039,-2.618,140.930,46.082,-26.978
-0.142,-0.036,-2.813,162.415,54.810,-26.001
-0.218,-0.063,-2.999,196.167,73.425,-19.531
-0.345,-0.136,-3.180,235.474,93.262,-15.259
-0.486,-0.224,-3.338,279.480,106.079,-20.996
-0.562,-0.361,-3.434,334.106,111.511,-41.138
-0.565,-0.528,-3.445,386.047,108.948,-70.862
-0.512,-0.730,-3.398,434.448,97.046,-100.281
-0.440,-0.874,-3.258,478.455,82.031,-122.742
-0.430,-0.833,-3.028,511.536,66.284,-132.507
-0.459,-0.756,-2.725,540.405,52.063,-136.658
-0.516,-0.759,-2.425,563.538,40.894,-143.860
-0.534,-0.821,-2.188,573.059,33.813,-152.649
-0.536,-0.862,-2.060,571.777,35.339,-161.011
-0.474,-0.818,-1.963,566.772,43.640,-165.100
-0.362,-0.802,-1.786,565.857,49.500,-167.480
-0.296,-0.858,-1.527,573.669,43.457,-176.147
-0.270,-0.937,-1.265,579.895,19.531,-192.444
-0.273,-1.099,-0.992,582.031,-21.179,-215.454
-0.270,-1.253,-0.769,581.421,-69.702,-238.647
-0.252,-1.418,-0.526,571.350,-118.958,-260.498
-0.226,-1.588,-0.309,554.199,-167.236,-276.489
-0.122,-1.725,-0.057,530.823,-208.496,-278.503
0.062,-1.819,0.208,498.291,-231.262,-260.620
0.302,-1.895,0.455,460.083,-232.056,-220.703
0.158,-1.835,0.394,420.959,-205.627,-161.194
0.013,-1.775,0.310,397.644,-169.617,-108.276
-0.162,-1.868,0.300,394.470,-137.695,-72.693
-0.265,-2.071,0.520,415.833,-106.812,-46.997
-0.475,-2.334,0.897,454.163,-66.467,-28.748
-0.643,-2.783,1.490,493.225,-25.085,-17.090
-0.560,-3.388,2.347,511.719,2.258,-13.550
-0.571,-3.984,3.424,485.901,10.376,-5.859
-0.644,-4.000,4.000,401.367,17.700,24.292
-0.495,-3.994,4.000,286.194,37.048,50.049
-0.186,-3.285,4.000,150.696,58.044,46.265
0.016,-2.590,3.999,1.343,56.030,31.494
0.063,-1.885,2.910,-132.874,36.621,31.311
-0.071,-1.183,1.391,-225.037,14.038,38.025
-0.239,-0.476,0.119,-277.649,-1.221,43.091
-0.193,0.181,-0.552,-286.133,1.160,44.250
-0.025,0.708,-0.820,-244.873,14.221,44.373
0.075,0.995,-0.680,-177.490,20.142,42.480
0.135,1.070,-0.267,-116.516,18.127,45.959
0.163,1.011,0.176,-76.965,24.353,53.406
0.145,0.889,0.578,-63.599,28.870,55.115
0.108,0.700,0.854,-72.754,22.461,51.331
0.057,0.465,1.043,-93.933,7.996,46.936
0.021,0.219,1.176,-115.417,0.427,43.945
0.024,0.005,1.311,-130.371,2.380,42.480
0.049,-0.173,1.454,-141.724,10.254,43.823
0.054,-0.313,1.554,-148.621,19.836,46.326
0.070,-0.394,1.619,-153.625,29.663,49.133
0.109,-0.443,1.634,-162.537,39.185,50.903
0.151,-0.476,1.620,-175.049,47.119,52.063
0.142,-0.502,1.588,-191.040,50.842,54.260
0.116,-0.512,1.558,-208.923,51.758,58.167
0.112,-0.496,1.515,-227.722,52.307,61.829
0.097,-0.479,1.467,-247.131,53.223,63.721
0.105,-0.464,1.394,-266.541,54.993,66.406
0.118,-0.433,1.295,-286.316,57.678,70.801
0.129,-0.410,1.164,-307.007,62.195,77.698
0.121,-0.414,0.994,-326.782,68.420,87.585
0.077,-0.401,0.800,-344.177,73.730,101.318
0.057,-0.347,0.608,-356.384,76.660,116.882
0.022,-0.297,0.441,-366.333,75.867,128.479
-0.028,-0.286,0.292,-376.282,73.120,134.888
-0.079,-0.269,0.148,-384.888,68.970,136.963
-0.133,-0.255,0.011,-392.700,63.232,134.888
-0.183,-0.268,-0.128,-400.330,55.664,130.249
-0.231,-0.301,-0.283,-406.372,48.157,125.122
-0.279,-0.326,-0.456,-410.339,46.021,122.375
-0.321,-0.344,-0.639,-414.001,52.673,123.047
-0.374,-0.351,-0.841,-415.588,64.636,125.061
-0.423,-0.321,-1.096,-409.241,76.477,128.479
-0.507,-0.258,-1.334,-394.104,85.449,131.714
-0.575,-0.160,-1.520,-372.253,96.313,133.484
-0.622,-0.043,-1.621,-343.567,103.760,127.258
-0.614,0.028,-1.634,-312.744,94.421,109.253
-0.537,0.031,-1.612,-294.006,69.519,83.862
-0.428,-0.007,-1.591,-289.856,34.241,61.401
-0.331,-0.067,-1.607,-293.457,-3.784,46.936
-0.272,-0.143,-1.680,-304.138,-31.982,41.077
-0.225,-0.167,-1.802,-320.618,-40.833,45.593
-0.196,-0.111,-1.944,-329.102,-31.799,59.570
-0.208,-0.004,-2.042,-324.707,-12.939,76.172
-0.247,0.163,-2.136,-306.885,6.287,89.722
-0.303,0.349,-2.167,-273.743,16.907,94.604
-0.341,0.481,-2.108,-228.821,13.672,87.219
-0.359,0.529,-1.968,-181.641,-0.122,69.946
-0.379,0.488,-1.760,-141.785,-21.240,47.668
-0.407,0.392,-1.572,-114.075,-42.542,28.320
-0.441,0.297,-1.420,-101.563,-55.359,18.066
-0.470,0.262,-1.338,-104.736,-54.932,16.296
-0.471,0.297,-1.353,-114.502,-44.128,18.860
-0.434,0.341,-1.427,-123.840,-28.687,21.606
-0.363,0.392,-1.507,-127.991,-14.160,22.827
-0.285,0.426,-1.578,-125.183,-3.723,21.912
-0.219,0.395,-1.614,-117.188,1.526,20.142
-0.159,0.351,-1.625,-103.760,0.366,17.883
-0.129,0.347,-1.584,-83.435,-5.981,13.550
-0.147,0.367,-1.508,-63.416,-15.137,8.545
-0.166,0.340,-1.386,-48.767,-25.269,2.502
-0.188,0.312,-1.268,-37.231,-31.921,-1.587
-0.229,0.300,-1.164,-30.029,-31.372,-0.854
-0.277,0.287,-1.121,-29.175,-23.865,0.916
-0.314,0.282,-1.136,-36.194,-14.954,2.502
-0.291,0.305,-1.208,-45.166,-7.141,3.357
-0.252,0.330,-1.308,-51.453,-1.038,3.357
-0.204,0.326,-1.393,-52.490,2.808,0.977
-0.165,0.289,-1.445,-46.753,2.991,-2.502
-0.149,0.294,-1.449,-33.020,-1.648,-5.310
-0.134,0.290,-1.387,-15.869,-10.376,-11.353
-0.139,0.277,-1.297,0.244,-20.081,-18.005
-0.148,0.272,-1.212,11.536,-24.902,-20.630
-0.164,0.272,-1.169,15.442,-23.193,-20.813
-0.149,0.281,-1.155,12.878,-17.029,-19.104

-0.308,0.467,-1.908,108.643,26.306,-3.540
-0.394,0.476,-2.011,127.563,29.114,-4.822
-0.488,0.503,-2.123,149.536,37.231,-5.188
-0.572,0.565,-2.234,174.255,48.828,-6.104
-0.621,0.594,-2.365,199.951,61.584,-10.803
-0.631,0.568,-2.542,225.769,69.824,-22.522
-0.656,0.556,-2.773,251.648,65.979,-39.856
-0.639,0.523,-3.007,278.259,52.429,-59.753
-0.571,0.425,-3.132,313.660,34.302,-81.726
-0.519,0.276,-3.091,359.253,19.348,-105.957
-0.500,0.113,-2.887,407.715,12.634,-125.671
-0.458,-0.030,-2.625,455.750,12.207,-143.188
-0.415,-0.096,-2.380,490.906,12.939,-160.889
-0.388,-0.163,-2.214,513.123,11.963,-176.025
-0.319,-0.222,-2.170,525.452,10.986,-184.631
-0.209,-0.160,-2.252,522.278,10.254,-183.533
-0.162,-0.038,-2.382,514.587,5.371,-169.983
-0.226,-0.050,-2.308,517.822,-10.315,-153.809
-0.338,-0.098,-2.022,530.396,-34.973,-147.095
-0.461,-0.130,-1.652,535.767,-61.890,-151.794
-0.565,-0.260,-1.273,528.687,-82.642,-169.006
-0.599,-0.456,-0.909,515.259,-96.497,-198.120
-0.534,-0.678,-0.609,497.925,-112.793,-228.516
-0.385,-0.843,-0.435,478.516,-128.540,-245.667
-0.219,-0.938,-0.344,462.097,-137.756,-243.591
-0.142,-1.029,-0.238,444.885,-135.254,-225.769
-0.049,-1.052,-0.147,433.350,-127.686,-200.378
-0.009,-1.024,-0.133,424.500,-123.779,-173.950
0.005,-1.013,-0.138,413.147,-121.216,-148.010
0.022,-1.043,-0.186,400.757,-113.586,-120.789
-0.024,-1.116,-0.222,394.348,-100.952,-90.881
-0.028,-1.200,-0.197,395.264,-86.548,-62.500
-0.167,-1.320,-0.157,398.926,-72.876,-40.466
-0.362,-1.519,-0.036,404.724,-60.852,-28.931
-0.560,-1.882,0.231,417.847,-49.194,-31.860
-0.818,-2.484,0.732,438.049,-31.677,-47.546
-1.071,-3.291,1.522,450.745,-7.568,-63.660
-1.403,-4.000,2.483,422.180,28.076,-78.430
-1.308,-4.000,3.589,334.717,72.937,-99.854
-0.722,-4.000,4.000,220.886,101.624,-134.521
-0.110,-4.000,4.000,104.736,89.233,-165.100
0.439,-3.321,4.000,-4.944,45.349,-159.912
0.709,-2.421,3.558,-108.093,10.071,-116.516
0.623,-1.690,2.410,-193.787,-7.874,-59.814
0.247,-1.149,1.063,-243.774,-20.996,-9.888
-0.121,-0.660,-0.059,-272.827,-26.794,33.081
-0.230,-0.161,-0.615,-292.908,-5.127,66.711
-0.050,0.268,-0.743,-262.939,37.292,84.595
0.067,0.485,-0.654,-207.153,71.960,82.520
0.154,0.493,-0.322,-147.888,75.256,68.298
0.217,0.381,0.081,-97.717,73.486,56.335
0.248,0.217,0.536,-66.467,80.933,48.035
0.328,0.055,0.934,-61.340,86.731,45.959
0.354,-0.148,1.246,-80.139,79.590,46.143
0.376,-0.334,1.495,-114.319,63.660,49.072
0.364,-0.415,1.619,-156.006,44.006,55.542
0.329,-0.456,1.585,-202.820,24.780,61.035
0.291,-0.486,1.431,-247.864,11.292,65.125
0.285,-0.507,1.232,-284.912,5.615,70.251
0.290,-0.507,1.032,-305.237,6.226,79.956
0.276,-0.465,0.873,-310.425,12.268,95.337
0.245,-0.420,0.801,-306.946,24.353,113.220
0.190,-0.407,0.805,-302.734,39.917,130.493
0.144,-0.372,0.833,-301.758,57.251,145.996
0.117,-0.323,0.851,-306.458,71.411,155.823
0.097,-0.286,0.838,-319.214,77.209,158.386
0.085,-0.288,0.794,-335.571,72.693,156.921
0.071,-0.279,0.721,-356.384,62.744,153.381
0.041,-0.278,0.615,-378.967,53.345,148.132
0.009,-0.300,0.494,-400.391,44.800,142.639
-0.020,-0.336,0.319,-416.443,35.583,137.268
-0.058,-0.347,0.119,-424.316,26.917,133.789
-0.080,-0.304,-0.070,-426.514,20.142,135.376
-0.102,-0.256,-0.240,-426.819,16.541,138.000
-0.134,-0.245,-0.425,-426.880,17.029,137.207
-0.187,-0.231,-0.622,-428.650,20.142,135.254
-0.225,-0.211,-0.828,-430.237,26.855,134.460
-0.245,-0.173,-1.028,-431.335,39.856,134.399
-0.280,-0.169,-1.188,-433.716,59.265,135.132
-0.338,-0.174,-1.279,-432.617,81.421,136.719
-0.398,-0.172,-1.323,-424.072,99.915,137.573
-0.412,-0.159,-1.355,-407.532,107.056,132.263
-0.430,-0.153,-1.385,-384.949,97.046,122.131
-0.439,-0.157,-1.459,-360.840,74.219,112.793
-0.425,-0.165,-1.585,-341.431,45.227,105.957
-0.419,-0.176,-1.757,-334.106,20.813,98.877
-0.465,-0.212,-1.968,-335.510,15.686,93.933
-0.514,-0.188,-2.224,-331.238,35.461,96.680
-0.567,-0.074,-2.431,-310.242,65.674,104.858
-0.655,0.130,-2.555,-267.273,81.177,109.619
-0.737,0.350,-2.520,-217.163,66.406,103.577
-0.729,0.499,-2.363,-172.485,31.799,84.534
-0.657,0.531,-2.126,-140.808,-6.165,57.007
-0.581,0.478,-1.883,-117.004,-40.100,30.518
-0.561,0.403,-1.706,-97.961,-60.974,12.878
-0.564,0.409,-1.514,-87.036,-66.589,7.263
-0.586,0.446,-1.382,-76.355,-62.439,5.920
-0.614,0.485,-1.266,-69.824,-54.626,3.540
-0.605,0.527,-1.194,-67.383,-43.030,0.732
-0.554,0.540,-1.166,-71.411,-29.602,-2.686
-0.476,0.520,-1.170,-79.468,-18.250,-7.141
-0.376,0.503,-1.190,-88.318,-11.169,-10.437
-0.261,0.488,-1.207,-95.093,-8.667,-12.390
-0.163,0.440,-1.216,-100.769,-10.803,-13.977
-0.089,0.375,-1.207,-104.614,-17.151,-14.648
-0.043,0.302,-1.180,-106.201,-27.344,-14.465
-0.013,0.248,-1.119,-105.286,-39.307,-12.878
0.004,0.191,-1.086,-100.281,-48.035,-9.644
-0.006,0.150,-1.057,-96.375,-51.819,-4.700
-0.045,0.123,-1.058,-96.069,-48.828,1.892
-0.105,0.101,-1.089,-96.680,-38.940,11.414
-0.156,0.109,-1.133,-91.614,-25.330,22.888
-0.175,0.156,-1.181,-80.383,-10.010,30.090
-0.183,0.202,-1.197,-72.754,0.977,31.677
-0.184,0.208,-1.211,-69.580,6.775,29.480
-0.166,0.197,-1.237,-67.627,8.240,26.306
-0.147,0.169,-1.262,-65.613,5.859,22.095
-0.123,0.143,-1.284,-62.012,1.587,18.005
-0.096,0.123,-1.299,-56.396,-0.122,15.198

-0.477,0.227,-2.443,49.927,26.428,29.541
-0.632,0.277,-2.718,75.684,49.438,21.545
-0.732,0.228,-2.966,115.723,74.158,5.920
-0.792,0.046,-3.232,169.495,86.731,-15.686
-0.774,-0.063,-3.527,227.478,83.008,-36.560
-0.689,-0.117,-3.723,274.292,69.458,-54.993
-0.610,-0.234,-3.774,313.660,49.927,-71.777
-0.579,-0.427,-3.722,349.243,27.710,-83.435
-0.548,-0.558,-3.534,377.930,5.798,-87.830
-0.510,-0.580,-3.246,408.081,-15.442,-91.858
-0.453,-0.602,-2.898,437.805,-29.541,-98.694
-0.400,-0.644,-2.620,457.642,-23.132,-102.600
-0.356,-0.708,-2.483,463.806,7.507,-101.257
-0.352,-0.758,-2.482,463.684,54.565,-97.534
-0.376,-0.707,-2.493,462.646,96.680,-96.252
-0.399,-0.671,-2.401,476.135,116.882,-99.609
-0.394,-0.733,-2.141,504.089,118.774,-109.985
-0.383,-0.818,-1.792,532.654,108.643,-128.784
-0.402,-0.943,-1.409,552.673,88.928,-156.799
-0.421,-1.106,-1.032,562.195,61.279,-192.139
-0.429,-1.273,-0.739,558.838,26.794,-231.140
-0.427,-1.432,-0.505,541.321,-17.517,-270.020
-0.404,-1.608,-0.293,518.860,-74.158,-303.345
-0.288,-1.743,-0.066,500.244,-138.550,-325.195
-0.097,-1.769,0.228,483.337,-202.209,-326.721
0.013,-1.724,0.202,479.248,-251.099,-307.251
-0.014,-1.617,0.275,463.379,-279.785,-270.020
-0.015,-1.551,0.234,451.721,-280.762,-221.619
-0.189,-1.478,0.163,449.158,-250.854,-175.903
-0.289,-1.440,0.265,442.871,-192.078,-133.240
-0.256,-1.518,0.398,437.500,-126.953,-100.098
-0.253,-1.631,0.568,440.491,-69.580,-83.740
-0.177,-1.754,0.851,450.134,-27.161,-69.885
-0.137,-1.878,1.176,456.299,-7.629,-49.133
-0.204,-1.984,1.622,453.613,-7.141,-29.175
-0.283,-2.130,2.090,434.631,-7.629,-18.005
-0.205,-2.345,2.579,394.653,4.395,-11.536
-0.176,-2.644,3.047,330.811,31.067,-1.587
-0.165,-2.877,3.450,245.117,64.209,16.663
-0.045,-2.841,3.605,148.743,91.980,32.471
0.032,-2.462,3.509,63.965,99.426,24.536
0.219,-1.907,3.115,6.836,78.125,0.977
0.359,-1.456,2.667,-55.603,36.316,-9.216
0.363,-1.118,2.193,-126.892,-6.470,-0.366
0.294,-0.850,1.627,-184.082,-34.424,20.203
0.198,-0.619,1.111,-223.022,-45.898,34.851
0.147,-0.457,0.698,-239.136,-49.683,39.001
0.102,-0.303,0.500,-239.502,-45.166,38.696
0.079,-0.175,0.481,-225.708,-32.715,41.260
0.096,-0.076,0.559,-204.041,-12.146,44.800
0.125,-0.026,0.667,-186.523,9.827,44.800
0.127,-0.072,0.798,-180.359,24.719,43.213
0.135,-0.199,0.949,-183.289,32.227,44.434
0.158,-0.313,1.115,-188.293,38.452,46.570
0.238,-0.378,1.277,-194.885,42.114,48.706
0.275,-0.402,1.398,-209.839,37.903,51.575
0.318,-0.412,1.417,-235.107,26.245,53.528
0.346,-0.430,1.344,-267.273,12.329,55.847
0.366,-0.452,1.213,-299.622,1.587,62.378
0.367,-0.459,1.068,-325.684,-0.916,74.463
0.311,-0.440,0.949,-340.637,4.761,90.454
0.241,-0.402,0.855,-347.046,18.250,106.323
0.177,-0.360,0.772,-351.562,35.095,118.652
0.110,-0.341,0.691,-359.070,47.852,127.441
0.047,-0.337,0.595,-368.896,53.528,135.681
-0.007,-0.323,0.469,-379.211,54.138,142.029
-0.059,-0.288,0.317,-390.320,50.659,144.592
-0.126,-0.261,0.171,-401.550,42.542,142.517
-0.168,-0.280,0.043,-410.461,33.630,135.620
-0.208,-0.310,-0.100,-413.391,29.053,127.502
-0.236,-0.316,-0.281,-409.241,31.738,121.460
-0.279,-0.298,-0.480,-401.428,38.757,117.004
-0.337,-0.288,-0.645,-390.686,44.739,113.037
-0.352,-0.310,-0.801,-376.526,49.316,107.727
-0.371,-0.310,-0.939,-365.051,55.420,100.037
-0.385,-0.310,-1.082,-357.605,62.378,92.224
-0.357,-0.347,-1.225,-351.807,63.599,86.548
-0.338,-0.376,-1.342,-349.121,61.340,86.426
-0.334,-0.366,-1.430,-350.281,62.256,92.163
-0.323,-0.348,-1.498,-349.915,58.960,98.877
-0.358,-0.376,-1.542,-352.234,40.466,103.088
-0.388,-0.386,-1.617,-360.352,13.733,105.408
-0.372,-0.331,-1.734,-368.530,-9.827,105.164
-0.362,-0.286,-1.886,-370.789,-28.503,100.769
-0.386,-0.231,-2.029,-366.150,-42.603,94.666
-0.392,-0.124,-2.134,-350.037,-48.523,87.952
-0.386,-0.012,-2.193,-322.205,-45.288,78.308
-0.389,0.068,-2.227,-290.955,-36.804,67.139
-0.384,0.120,-2.221,-261.780,-31.006,55.847
-0.343,0.150,-2.183,-234.375,-31.738,44.312
-0.297,0.165,-2.112,-207.581,-41.138,32.227
-0.254,0.186,-2.017,-181.458,-53.284,22.766
-0.241,0.214,-1.925,-159.912,-62.317,17.456
-0.259,0.223,-1.839,-142.700,-68.054,15.076
-0.295,0.212,-1.759,-129.883,-69.153,14.343
-0.334,0.195,-1.712,-118.042,-67.749,10.742
-0.361,0.199,-1.699,-105.286,-65.125,3.784
-0.315,0.222,-1.715,-96.191,-59.021,-2.563
-0.236,0.243,-1.747,-90.027,-49.744,-7.812
-0.167,0.241,-1.765,-81.360,-37.659,-10.315
-0.129,0.226,-1.750,-68.359,-24.597,-7.629
-0.128,0.232,-1.695,-52.551,-12.878,-2.197
-0.166,0.255,-1.606,-35.706,-3.052,2.747
-0.219,0.274,-1.502,-22.034,4.089,5.615
-0.256,0.284,-1.396,-12.695,8.667,6.165
-0.270,0.291,-1.300,-7.874,11.841,4.272
-0.248,0.288,-1.224,-7.629,13.672,-0.366
-0.198,0.280,-1.172,-10.925,11.963,-5.371
-0.132,0.269,-1.148,-15.991,8.667,-9.033
-0.076,0.249,-1.150,-20.996,4.211,-10.315
-0.031,0.235,-1.167,-24.536,-1.587,-10.254
0.003,0.223,-1.179,-26.245,-8.606,-9.155
0.021,0.216,-1.184,-26.367,-14.221,-6.287
0.017,0.227,-1.214,-24.780,-14.648,-2.441
0.017,0.573,-1.957,-27.405,-21.240,-2.808
-0.321,0.159,-1.500,-14.893,-53.650,-7.507
-0.039,0.010,-1.108,16.541,-32.532,-0.793
0.007,0.096,-0.792,28.442,-3.662,-5.066
-0.084,0.178,-0.885,22.827,7.141,-13.977

-0.448,0.370,-2.024,77.576,44.189,20.081
-0.549,0.404,-2.135,96.008,47.974,15.869
-0.614,0.428,-2.299,109.009,41.260,4.883
-0.615,0.456,-2.558,119.995,24.353,-9.705
-0.601,0.442,-2.906,134.766,-2.197,-27.649
-0.584,0.340,-3.288,158.569,-34.607,-45.715
-0.600,0.109,-3.566,199.219,-62.317,-61.279
-0.605,-0.204,-3.612,260.437,-67.444,-71.350
-0.546,-0.512,-3.422,338.867,-47.302,-76.416
-0.461,-0.621,-3.127,417.480,-14.954,-82.947
-0.408,-0.642,-2.764,471.619,13.672,-90.820
-0.262,-0.632,-2.414,497.131,33.325,-93.750
-0.147,-0.606,-2.116,505.432,43.091,-95.032
-0.080,-0.533,-1.932,502.625,47.424,-92.834
-0.075,-0.454,-1.841,492.859,47.302,-86.426
-0.070,-0.413,-1.791,483.154,44.250,-79.651
-0.071,-0.384,-1.751,474.182,39.612,-76.599
-0.126,-0.377,-1.643,471.558,33.203,-78.979
-0.158,-0.422,-1.393,480.713,23.437,-89.355
-0.183,-0.490,-1.088,491.882,11.047,-107.056
-0.202,-0.534,-0.849,494.751,-3.601,-128.540
-0.230,-0.613,-0.644,484.558,-28.442,-150.818
-0.229,-0.724,-0.498,466.309,-62.378,-170.044
-0.192,-0.798,-0.435,446.045,-94.666,-183.960
-0.103,-0.768,-0.481,422.791,-121.216,-188.293
-0.058,-0.749,-0.554,405.334,-143.921,-182.739
-0.022,-0.787,-0.449,403.564,-158.936,-176.453
-0.007,-0.821,-0.276,413.879,-163.208,-169.617
-0.051,-0.817,-0.059,421.387,-159.668,-161.743
-0.100,-0.812,0.113,421.448,-154.480,-155.884
-0.102,-0.802,0.260,411.865,-151.184,-149.902
-0.064,-0.817,0.347,395.020,-146.545,-141.418
0.008,-0.876,0.421,374.023,-139.709,-129.272
0.031,-0.967,0.504,354.126,-134.827,-110.474
0.022,-1.038,0.645,339.294,-132.202,-85.022
0.034,-1.074,0.799,324.646,-127.014,-56.641
-0.158,-1.238,1.013,309.387,-116.211,-26.428
-0.441,-1.555,1.288,305.725,-91.431,5.981
-0.846,-2.015,1.699,320.984,-47.546,31.555
-1.226,-2.612,2.338,343.933,13.977,44.922
-1.398,-3.317,3.119,339.294,93.750,52.979
-1.105,-3.682,3.971,280.762,173.157,47.302
-0.419,-3.306,4.000,185.486,215.576,10.132
0.054,-2.408,4.000,77.026,182.495,-43.579
0.294,-1.710,3.981,-37.598,88.379,-72.205
0.177,-1.397,3.096,-175.537,-16.418,-58.777
0.072,-1.246,2.050,-291.443,-85.510,-29.358
-0.121,-1.217,0.968,-340.210,-110.840,-18.005
-0.230,-1.093,0.404,-361.389,-94.116,-25.330
-0.205,-0.812,0.311,-348.999,-50.415,-28.809
-0.115,-0.494,0.447,-291.321,2.136,-19.470
-0.057,-0.307,0.651,-233.765,53.284,-3.662
-0.031,-0.232,0.813,-205.383,96.680,12.512
-0.009,-0.235,0.916,-201.355,124.268,26.123
0.065,-0.253,0.974,-206.909,138.550,34.729
0.106,-0.244,0.982,-218.262,137.939,40.833
0.132,-0.255,0.965,-231.262,128.967,45.776
0.183,-0.281,0.954,-246.704,120.178,49.133
0.221,-0.286,0.903,-266.479,109.680,55.481
0.213,-0.259,0.786,-291.992,96.436,63.477
0.184,-0.236,0.626,-322.021,81.909,71.716
0.156,-0.220,0.444,-349.854,71.289,79.041
0.146,-0.187,0.252,-368.652,67.871,83.740
0.145,-0.144,0.090,-378.479,68.848,87.280
0.161,-0.100,-0.040,-383.301,72.571,92.896
0.183,-0.056,-0.163,-387.634,81.177,103.149
0.187,-0.037,-0.292,-394.348,96.191,119.141
0.172,-0.054,-0.435,-401.794,113.647,138.794
0.115,-0.077,-0.602,-403.748,128.113,157.532
0.069,-0.078,-0.786,-400.146,141.418,175.659
-0.011,-0.100,-0.931,-391.357,154.175,191.589
-0.087,-0.098,-1.033,-366.943,162.659,203.491
-0.102,-0.050,-1.053,-331.787,165.833,208.252
-0.171,-0.007,-1.041,-307.922,162.842,205.078
-0.223,-0.014,-1.044,-301.147,152.405,201.660
-0.267,-0.044,-1.118,-305.542,135.498,201.355
-0.354,-0.051,-1.258,-315.552,118.591,205.811
-0.481,-0.026,-1.420,-327.637,107.483,213.867
-0.633,0.048,-1.629,-337.769,98.633,220.032
-0.826,0.181,-1.850,-343.140,88.257,218.628
-0.962,0.322,-1.988,-335.754,74.341,205.139
-0.997,0.441,-2.027,-310.669,53.345,176.880
-0.978,0.500,-1.983,-276.978,23.193,137.573
-0.910,0.525,-1.896,-242.493,-13.245,97.351
-0.808,0.530,-1.773,-210.022,-53.345,60.608
-0.708,0.486,-1.621,-184.204,-89.905,28.198
-0.602,0.425,-1.474,-165.771,-114.929,3.540
-0.511,0.382,-1.347,-156.067,-126.282,-10.986
-0.453,0.358,-1.276,-152.222,-127.258,-15.625
-0.380,0.321,-1.241,-153.503,-118.835,-12.817
-0.310,0.291,-1.244,-156.250,-101.746,-7.019
-0.262,0.265,-1.280,-155.334,-79.895,-0.122
-0.243,0.262,-1.319,-150.696,-56.152,10.498
-0.245,0.303,-1.359,-143.250,-32.654,22.583
-0.266,0.325,-1.395,-135.437,-12.878,32.471
-0.325,0.317,-1.443,-130.920,-0.793,39.246
-0.375,0.310,-1.523,-128.601,4.333,42.542
-0.401,0.324,-1.599,-124.695,4.639,41.077
-0.389,0.351,-1.663,-117.188,2.014,33.142
-0.335,0.382,-1.672,-105.957,-3.113,19.897
-0.256,0.401,-1.652,-87.158,-7.446,4.639
-0.180,0.407,-1.627,-61.035,-12.024,-8.911
-0.139,0.358,-1.542,-40.405,-20.325,-18.677
-0.096,0.292,-1.358,-31.128,-31.067,-22.095
-0.097,0.258,-1.265,-21.301,-40.405,-21.973
-0.126,0.261,-1.166,-18.921,-47.241,-18.433
-0.129,0.270,-1.122,-19.348,-47.241,-12.268
-0.131,0.259,-1.109,-23.254,-40.955,-7.385
-0.130,0.242,-1.103,-26.672,-32.410,-5.493
-0.080,0.229,-1.108,-25.818,-21.423,-2.625
-0.033,0.210,-1.087,-23.071,-9.033,1.404
-0.022,0.181,-1.036,-19.714,2.319,4.944
-0.027,0.173,-0.977,-15.015,9.949,7.935
-0.025,0.163,-0.941,-11.475,12.207,10.681
-0.045,0.154,-0.913,-13.611,9.644,13.489
-0.083,0.172,-0.902,-18.433,4.089,16.541
-0.107,0.195,-0.916,-24.231,-0.610,18.005
-0.134,0.201,-0.945,-31.128,-3.174,17.456
-0.160,0.189,-0.983,-36.377,-5.249,16.052

-0.458,0.288,-2.285,173.584,74.341,-23.132
-0.629,0.363,-2.635,185.181,81.604,-26.245
-0.752,0.474,-3.061,193.237,86.487,-27.100
-0.868,0.424,-3.584,212.402,89.478,-37.842
-0.969,0.246,-4.000,247.437,87.280,-58.289
-1.017,-0.016,-4.000,304.382,78.735,-82.703
-0.974,-0.273,-4.000,388.000,72.571,-111.755
-0.938,-0.477,-3.978,476.746,70.496,-144.470
-0.923,-0.626,-3.572,541.504,62.866,-175.293
-0.808,-0.693,-3.098,587.158,48.462,-199.524
-0.666,-0.708,-2.673,614.563,31.189,-217.712
-0.545,-0.662,-2.332,617.371,16.541,-224.304
-0.464,-0.593,-2.016,608.643,7.629,-222.046
-0.405,-0.596,-1.697,600.342,-0.183,-220.276
-0.386,-0.563,-1.477,590.454,-8.240,-217.041
-0.463,-0.502,-1.417,573.486,-13.123,-210.388
-0.515,-0.536,-1.386,557.495,-15.320,-206.116
-0.473,-0.594,-1.347,548.401,-18.982,-216.064
-0.445,-0.562,-1.351,539.795,-27.832,-231.628
-0.411,-0.652,-1.274,534.058,-41.321,-241.455
-0.337,-0.824,-1.024,534.973,-56.580,-253.418
-0.302,-1.033,-0.705,535.461,-68.176,-269.470
-0.245,-1.235,-0.389,525.330,-81.970,-280.457
-0.246,-1.319,-0.184,507.935,-98.511,-279.968
-0.241,-1.334,-0.081,485.901,-112.915,-266.479
-0.130,-1.403,-0.080,460.632,-121.460,-245.422
-0.151,-1.512,-0.168,434.814,-122.437,-219.482
-0.233,-1.648,-0.263,417.480,-113.098,-183.044
-0.280,-1.845,-0.309,412.903,-94.116,-145.752
-0.341,-2.116,-0.161,423.340,-70.984,-120.605
-0.407,-2.466,0.172,443.481,-46.509,-104.980
-0.527,-2.944,0.658,461.975,-21.667,-97.351
-0.687,-3.529,1.148,470.703,5.554,-101.685
-0.771,-4.000,1.957,447.205,35.706,-115.417
-0.464,-4.000,3.030,366.821,69.824,-125.000
-0.190,-4.000,3.920,247.803,101.074,-123.047
0.323,-4.000,4.000,127.869,108.154,-109.375
0.778,-3.688,4.000,12.695,80.505,-76.904
0.897,-2.883,3.812,-98.633,31.494,-29.602
0.609,-2.317,2.705,-208.374,-11.719,23.071
0.064,-1.813,1.326,-289.856,-33.508,70.801
-0.345,-1.304,-0.053,-325.134,-37.109,98.328
-0.501,-0.695,-0.729,-340.759,-20.935,103.699
-0.283,-0.205,-0.852,-315.430,6.348,91.003
0.007,0.092,-0.581,-252.136,28.687,76.782
0.247,0.263,-0.216,-189.392,46.631,73.669
0.339,0.315,0.182,-150.208,66.467,79.224
0.364,0.289,0.572,-139.648,77.148,81.909
0.388,0.186,0.935,-151.367,68.604,82.520
0.446,0.087,1.178,-182.678,49.011,86.060
0.501,0.000,1.274,-227.722,30.945,90.271
0.515,-0.053,1.222,-278.198,18.494,97.473
0.530,-0.095,1.096,-326.416,7.263,110.474
0.529,-0.135,0.936,-365.601,-2.441,127.869
0.474,-0.176,0.736,-391.113,-4.517,148.682
0.353,-0.193,0.578,-401.672,4.272,170.532
0.222,-0.170,0.456,-391.785,22.278,189.575
0.101,-0.097,0.414,-370.483,41.260,201.111
-0.001,-0.025,0.421,-348.511,56.030,205.139
-0.077,0.050,0.467,-333.130,64.270,200.562
-0.126,0.106,0.500,-328.674,64.880,187.317
-0.165,0.133,0.535,-335.266,57.800,168.030
-0.183,0.145,0.534,-347.839,43.396,147.095
-0.200,0.154,0.493,-362.122,26.001,125.000
-0.209,0.157,0.415,-376.221,9.888,102.356
-0.205,0.140,0.323,-388.367,-1.892,80.933
-0.187,0.119,0.230,-398.865,-8.301,62.195
-0.157,0.104,0.108,-405.945,-7.935,47.363
-0.148,0.072,-0.020,-411.194,1.953,38.391
-0.150,0.037,-0.154,-415.588,21.423,36.133
-0.180,-0.006,-0.290,-420.410,47.729,39.001
-0.229,-0.044,-0.418,-424.866,73.792,43.884
-0.248,-0.082,-0.557,-426.453,91.797,47.485
-0.260,-0.183,-0.690,-426.758,97.473,49.011
-0.311,-0.344,-0.845,-431.335,98.145,53.284
-0.379,-0.483,-1.049,-446.838,105.347,63.721
-0.404,-0.569,-1.256,-472.900,121.948,74.951
-0.434,-0.590,-1.486,-499.023,140.442,81.360
-0.432,-0.573,-1.631,-511.658,142.456,87.158
-0.371,-0.514,-1.756,-499.329,126.465,88.623
-0.291,-0.442,-1.877,-472.412,99.731,82.336
-0.229,-0.374,-1.930,-436.523,73.364,72.021
-0.159,-0.346,-1.989,-388.611,55.237,61.951
-0.136,-0.313,-1.968,-338.318,40.833,56.946
-0.117,-0.298,-1.912,-286.499,27.893,55.481
-0.121,-0.340,-1.794,-241.943,13.184,56.885
-0.141,-0.439,-1.652,-206.848,-1.953,57.922
-0.144,-0.547,-1.511,-181.702,-14.648,60.791
-0.142,-0.618,-1.435,-164.062,-25.269,65.857
-0.149,-0.621,-1.386,-149.963,-34.668,71.533
-0.177,-0.526,-1.413,-139.526,-42.175,76.538
-0.261,-0.479,-1.483,-139.771,-45.837,81.604
-0.348,-0.443,-1.580,-146.118,-44.006,86.975
-0.433,-0.385,-1.678,-149.780,-37.048,87.219
-0.484,-0.316,-1.769,-146.667,-26.611,82.092
-0.491,-0.213,-1.837,-137.817,-12.573,75.134
-0.477,-0.091,-1.896,-120.667,3.235,67.078
-0.479,-0.042,-1.896,-100.647,17.883,56.458
-0.467,-0.078,-1.831,-81.421,25.574,45.471
-0.439,-0.123,-1.740,-59.509,24.231,36.499
-0.393,-0.141,-1.657,-39.368,16.418,30.151
-0.307,-0.141,-1.566,-27.893,5.493,26.184
-0.256,-0.129,-1.503,-23.315,-3.784,23.560
-0.229,-0.102,-1.467,-24.170,-12.085,22.095
-0.219,-0.089,-1.455,-26.550,-16.785,21.057
-0.209,-0.085,-1.450,-26.733,-14.954,17.395
-0.194,-0.079,-1.444,-22.095,-11.169,10.376
-0.161,-0.071,-1.415,-13.184,-8.179,2.747
-0.118,-0.090,-1.371,-2.869,-6.775,-4.089
-0.075,-0.099,-1.321,7.019,-5.005,-9.338
-0.028,-0.105,-1.269,15.137,-0.610,-13.367
0.004,-0.118,-1.227,21.973,3.845,-15.930
0.026,-0.138,-1.183,27.832,5.249,-15.930
0.043,-0.164,-1.133,31.860,4.517,-14.221
0.049,-0.179,-1.082,33.508,2.991,-10.132
0.032,-0.168,-1.035,32.104,0.427,-3.357
0.006,-0.140,-1.009,27.466,-2.869,4.333
-0.030,-0.106,-0.999,20.813,-6.409,10.803
-0.065,-0.082,-1.004,12.939,-9.338,14.587
