aX,aY,aZ,gX,gY,gZ
0.710,0.884,1.146,95.947,-61.462,-92.224
0.780,1.042,1.252,97.778,-69.763,-88.135
0.887,1.294,1.398,104.553,-64.331,-81.482
0.983,1.626,1.515,126.099,-45.959,-70.374
0.945,1.775,1.528,155.273,-17.090,-52.307
0.695,1.760,1.411,172.913,13.855,-32.288
0.354,1.927,1.248,190.552,38.086,-9.949
-0.103,1.825,1.092,195.557,55.298,-10.986
-0.565,1.845,0.824,195.496,60.974,-26.367
-1.120,1.698,0.562,185.059,47.913,-56.885
-1.671,1.331,0.189,171.387,21.851,-89.600
-2.352,0.627,-0.460,161.438,-5.920,-97.717
-3.170,-0.448,-1.304,143.311,-5.737,-76.294
-3.879,-1.818,-2.147,123.474,49.561,-46.021
-4.000,-3.510,-3.339,90.027,148.987,-53.406
-4.000,-4.000,-1.776,-3.052,273.193,-111.572
-3.103,-4.000,-4.000,16.174,394.592,-277.283
-0.630,-4.000,-2.418,7.874,287.109,-598.694
2.531,-4.000,0.230,76.843,-60.486,-753.235
4.000,-4.000,1.024,330.017,-335.999,-637.756
4.000,-4.000,0.989,295.776,-323.181,-427.307
4.000,-3.973,-0.532,114.624,-59.448,-100.159
2.655,-3.485,-1.616,-40.100,176.208,323.364
-1.739,-2.446,-1.475,-26.917,155.823,710.999
-4.000,-1.536,0.128,87.646,49.866,813.354
-4.000,-0.371,1.886,253.723,-11.108,592.285
-4.000,0.596,3.156,364.075,-64.819,300.110
-3.985,0.776,3.423,273.437,-103.149,89.478
-2.747,0.703,2.098,15.869,-60.608,-23.560
-1.689,0.429,0.526,-176.147,11.841,-108.032
-0.738,-0.274,-0.120,-168.762,33.020,-176.697
-0.261,-0.965,-0.039,-83.252,5.981,-192.871
-0.139,-1.241,0.299,-28.259,-27.527,-158.691
-0.099,-1.289,0.523,-12.878,-29.114,-111.511
-0.095,-1.229,0.435,-27.527,-5.615,-76.050
-0.076,-1.215,0.307,-39.856,11.475,-46.753
0.003,-1.124,0.166,-35.706,17.456,-14.648
0.038,-1.010,0.072,-26.794,19.470,8.850
0.026,-0.990,0.030,-16.479,20.142,20.569
0.005,-1.036,0.070,-4.456,18.127,26.245
-0.031,-1.091,0.160,4.272,11.902,28.625
-0.071,-1.136,0.231,1.648,3.113,30.396
-0.128,-1.209,0.242,-12.573,-6.287,31.799
-0.169,-1.291,0.207,-31.433,-16.968,32.776
-0.150,-1.362,0.154,-47.302,-27.893,33.325
-0.105,-1.467,0.109,-57.251,-36.499,36.194
-0.066,-1.582,0.062,-61.462,-40.222,44.800
-0.054,-1.659,0.026,-59.814,-39.856,59.265
-0.099,-1.688,0.017,-55.786,-35.278,77.332
-0.179,-1.710,-0.022,-55.969,-28.564,94.971
-0.185,-1.751,-0.125,-60.547,-22.644,109.619
-0.181,-1.783,-0.240,-66.711,-20.142,119.995
-0.167,-1.804,-0.325,-71.777,-21.973,127.686
-0.164,-1.839,-0.395,-79.529,-27.649,134.583
-0.198,-1.885,-0.455,-90.393,-35.950,141.296
-0.249,-1.952,-0.468,-98.206,-43.884,142.578
-0.272,-1.999,-0.337,-96.802,-44.373,136.597
-0.324,-1.957,-0.254,-93.750,-34.119,130.493
-0.311,-1.955,-0.195,-86.365,-26.855,127.869
-0.234,-1.877,-0.095,-73.975,-35.339,131.897
-0.109,-1.773,0.057,-73.059,-54.993,137.085
0.069,-1.807,0.207,-85.327,-74.280,142.883
0.093,-1.757,0.312,-114.441,-84.229,155.029
-0.024,-1.551,0.318,-138.977,-83.496,163.757
-0.169,-1.296,0.492,-143.005,-78.064,155.029
-0.194,-1.152,0.668,-142.456,-64.270,129.456
-0.134,-0.613,0.400,-146.606,-48.645,100.037
0.069,-0.205,0.443,-166.687,-36.926,129.822
0.270,-0.319,0.089,-151.794,4.883,113.892
0.493,-0.241,-0.004,-114.319,43.335,90.515
0.740,0.016,-0.029,-39.917,52.490,79.407
0.808,0.217,0.060,4.150,33.813,71.289
0.645,0.375,0.284,17.090,-12.085,63.782
0.399,0.496,0.650,7.385,-69.824,51.453
0.041,0.589,1.119,-9.033,-114.868,34.851
-0.305,0.796,1.630,-16.785,-130.920,27.527
-0.469,1.113,2.068,-16.663,-111.572,33.447
-0.612,1.517,2.343,-7.690,-53.406,55.664
-0.938,1.929,2.560,11.230,20.081,99.426
-1.426,2.125,2.721,31.738,81.299,148.743
-1.973,2.190,2.696,24.048,108.521,169.373
-2.113,2.097,2.233,-12.512,102.051,117.981
-1.592,1.739,1.494,-61.340,76.416,-0.305
-0.744,1.195,0.658,-100.037,43.030,-125.610
0.033,0.502,0.068,-101.929,10.193,-208.862
0.565,-0.279,-0.133,-70.129,-15.991,-237.305
0.971,-0.836,-0.052,-22.888,-25.757,-215.515
1.219,-1.122,0.126,26.917,-20.142,-160.645
1.234,-1.113,0.347,66.528,-7.202,-95.886
1.069,-1.003,0.559,88.074,3.479,-39.185
0.881,-0.932,0.683,95.520,11.230,-4.028
0.650,-0.859,0.790,93.384,12.573,9.277
0.444,-0.749,0.894,86.975,3.479,11.780
0.266,-0.664,1.003,76.477,-13.184,8.850
0.098,-0.623,1.110,63.660,-28.809,2.197
-0.004,-0.620,1.155,54.932,-35.217,-3.906
-0.032,-0.653,1.172,49.316,-32.593,-10.132
0.005,-0.701,1.154,45.837,-23.010,-14.832
0.084,-0.786,1.103,43.091,-11.841,-15.503
0.183,-0.880,1.038,37.720,-2.869,-11.963
0.253,-0.940,0.996,28.198,1.038,-6.226
0.262,-0.969,0.955,16.724,0.122,-0.610
0.258,-0.945,0.892,4.761,-3.357,4.150
0.239,-0.902,0.837,-6.897,-6.897,5.554
0.204,-0.866,0.781,-15.381,-9.155,5.920
0.190,-0.815,0.724,-18.250,-8.850,7.385
0.169,-0.774,0.689,-15.869,-6.226,8.667
0.169,-0.744,0.666,-8.789,-3.052,10.071
0.165,-0.701,0.671,-0.183,-0.305,10.498
0.148,-0.680,0.690,5.798,2.625,9.460
0.161,-0.664,0.687,7.080,4.700,8.240
0.178,-0.658,0.662,4.700,4.883,7.874
0.191,-0.656,0.642,-0.977,3.357,8.301
0.181,-0.650,0.630,-6.104,0.122,9.033
0.172,-0.656,0.640,-8.057,-2.502,8.850
0.153,-0.668,0.647,-7.385,-2.808,8.118
0.141,-0.665,0.655,-3.113,-1.526,7.935
0.135,-0.642,0.681,3.113,-0.061,7.690
0.127,-0.621,0.693,7.507,0.854,6.226

-0.363,1.194,1.191,147.705,43.945,-156.860
-0.572,1.089,1.081,173.645,55.298,-186.340
-0.824,0.846,0.900,211.670,73.242,-209.839
-1.040,0.416,0.615,249.329,97.961,-218.445
-1.077,-0.336,0.375,270.325,121.155,-210.876
-0.882,-1.059,0.109,276.367,135.437,-179.565
-1.202,-1.547,-0.172,244.141,136.719,-112.122
-1.718,-2.050,-0.835,155.640,131.165,-21.606
-2.214,-3.163,-1.691,25.024,124.817,55.542
-2.721,-4.000,-2.124,-106.689,122.009,85.999
-1.944,-4.000,-2.104,-157.043,130.737,9.766
-1.049,-4.000,-0.870,-125.061,184.631,-128.906
1.233,-4.000,-1.975,-72.144,264.771,-200.806
2.130,-3.959,-1.953,-53.406,268.494,-210.571
1.965,-2.224,-2.268,-12.939,220.459,-98.267
1.358,-0.716,-2.513,-14.465,179.993,37.354
0.743,0.072,-2.687,-23.132,160.889,137.756
-0.066,0.042,-2.269,-4.761,95.764,171.265
-0.856,-0.654,-1.220,59.265,-23.376,126.343
-1.415,-1.258,0.075,120.361,-124.939,41.382
-1.682,-1.655,1.144,139.404,-164.307,-33.630
-1.794,-1.701,1.885,116.333,-151.245,-65.674
-1.724,-1.474,2.181,73.059,-104.492,-55.603
-1.431,-1.250,1.928,17.395,-40.771,-35.034
-1.069,-1.097,1.362,-37.842,11.841,-29.602
-0.719,-0.959,0.668,-85.938,37.109,-37.964
-0.429,-0.975,0.137,-117.676,24.902,-52.490
-0.185,-1.143,-0.153,-124.268,-8.667,-66.345
0.013,-1.368,-0.212,-116.028,-37.964,-69.458
0.108,-1.529,-0.161,-97.961,-50.354,-59.326
0.144,-1.568,-0.101,-73.914,-50.049,-34.729
0.108,-1.582,-0.047,-47.607,-45.654,-1.526
0.031,-1.570,-0.030,-24.719,-38.757,32.288
-0.038,-1.551,-0.051,-10.315,-33.020,60.852
-0.089,-1.565,-0.126,-5.371,-30.334,81.482
-0.096,-1.626,-0.230,-10.071,-33.081,95.886
-0.106,-1.684,-0.321,-19.897,-40.283,105.591
-0.131,-1.753,-0.373,-29.663,-47.791,114.441
-0.146,-1.822,-0.408,-38.757,-52.673,125.305
-0.132,-1.884,-0.437,-50.903,-55.176,136.658
-0.134,-1.948,-0.478,-65.674,-54.199,143.738
-0.130,-1.978,-0.503,-77.759,-46.387,147.888
-0.164,-1.977,-0.482,-81.970,-34.912,153.687
-0.188,-1.948,-0.388,-78.979,-28.748,156.860
-0.334,-2.134,-0.372,-72.205,-35.461,144.775
-0.504,-1.591,-0.174,-80.566,-45.593,150.818
-0.483,-1.415,-0.189,-70.923,-39.368,176.636
-0.401,-1.284,-0.060,-43.762,-20.386,166.809
-0.321,-1.096,0.124,-20.569,-9.827,158.813
-0.264,-0.904,0.248,-7.263,-13.855,152.466
-0.188,-0.809,0.312,-12.146,-21.057,140.076
-0.083,-0.737,0.338,-18.188,-21.973,121.826
0.048,-0.639,0.362,-18.677,-13.123,101.257
0.211,-0.561,0.401,-12.756,0.305,86.121
0.433,-0.511,0.432,-8.240,12.512,78.918
0.555,-0.424,0.480,-5.432,21.790,80.322
0.591,-0.311,0.553,-5.676,23.071,88.318
0.673,-0.282,0.591,-13.306,12.329,91.064
0.760,-0.245,0.592,-24.902,-2.380,85.327
0.817,-0.147,0.611,-35.767,-15.686,77.515
0.780,-0.033,0.648,-40.039,-30.151,74.463
0.712,0.064,0.727,-37.964,-46.082,76.721
0.618,0.124,0.818,-35.217,-58.960,79.956
0.510,0.172,0.959,-28.809,-63.782,80.750
0.354,0.225,1.129,-18.860,-60.669,80.872
0.209,0.289,1.372,-14.709,-56.641,78.796
0.054,0.399,1.732,-14.404,-56.641,75.134
-0.291,0.599,2.255,-13.977,-59.204,77.881
-0.818,0.759,2.773,-17.517,-59.143,88.379
-1.356,0.819,3.076,-36.133,-51.453,100.098
-1.680,0.829,3.001,-66.895,-34.729,98.999
-1.722,0.768,2.554,-96.619,-11.475,72.754
-1.410,0.651,1.909,-119.507,20.508,24.780
-0.800,0.465,1.154,-128.906,55.908,-32.349
-0.146,0.172,0.510,-119.995,82.581,-81.116
0.359,-0.146,0.087,-92.224,89.417,-105.103
0.700,-0.404,-0.135,-54.993,80.078,-106.445
0.906,-0.589,-0.219,-23.071,60.303,-97.778
1.057,-0.705,-0.242,0.183,39.795,-86.609
1.134,-0.732,-0.211,17.273,23.621,-74.158
1.147,-0.722,-0.147,31.616,9.460,-58.899
1.083,-0.724,-0.034,39.612,-5.310,-42.786
0.972,-0.731,0.113,42.908,-21.362,-29.907
0.844,-0.752,0.303,46.448,-37.415,-21.606
0.715,-0.836,0.505,47.668,-50.903,-17.883
0.620,-0.904,0.696,48.462,-56.824,-14.587
0.502,-0.940,0.872,50.781,-54.321,-7.507
0.381,-0.941,1.012,53.650,-47.180,2.686
0.288,-0.922,1.098,51.575,-38.513,13.062
0.205,-0.886,1.124,44.312,-29.785,20.325
0.142,-0.855,1.107,34.790,-23.315,23.621
0.097,-0.842,1.074,23.621,-20.874,22.278
0.092,-0.838,1.037,11.353,-22.644,16.785
0.089,-0.856,1.002,0.244,-26.855,10.010
0.103,-0.878,0.962,-8.423,-29.358,4.395
0.120,-0.876,0.921,-14.160,-27.893,1.648
0.144,-0.867,0.870,-17.578,-22.705,2.686
0.173,-0.846,0.801,-18.738,-13.428,5.066
0.219,-0.825,0.735,-17.456,-2.502,7.874
0.280,-0.812,0.656,-16.724,6.104,10.742
0.341,-0.810,0.574,-17.273,9.583,12.085
0.376,-0.810,0.518,-18.433,6.653,11.902
0.396,-0.791,0.491,-19.470,0.122,11.169
0.376,-0.767,0.495,-20.752,-5.737,10.681
0.333,-0.727,0.512,-20.264,-8.484,11.963
0.284,-0.669,0.529,-18.250,-7.751,14.587
0.233,-0.609,0.538,-14.954,-5.737,16.113
0.204,-0.564,0.552,-10.681,-3.296,15.076
0.201,-0.547,0.563,-7.507,-1.282,12.146
0.209,-0.550,0.578,-3.967,-0.610,8.362
0.227,-0.571,0.608,-0.305,-1.587,4.333
0.247,-0.602,0.630,2.136,-2.869,1.282
0.265,-0.629,0.640,3.235,-3.235,0.183
0.271,-0.643,0.646,4.272,-2.319,1.282
0.262,-0.644,0.657,5.066,-0.732,3.418
0.253,-0.647,0.664,4.944,-0.366,4.150
0.264,-0.631,0.665,3.845,-1.038,3.052
0.272,-0.642,0.661,2.380,-1.709,1.038
0.269,-0.655,0.665,2.502,-2.197,-0.610

-2.251,-0.205,0.610,162.781,262.756,-98.450
-2.916,-0.516,0.239,122.742,276.917,-110.901
-3.512,-1.051,-0.433,56.030,276.550,-130.066
-3.958,-1.953,-1.287,-25.024,262.878,-161.743
-3.967,-3.270,-2.154,-105.347,244.507,-208.313
-3.514,-4.000,-2.768,-167.419,213.806,-266.541
-2.741,-4.000,-2.924,-169.983,166.382,-332.336
-1.025,-4.000,-2.685,-82.825,117.371,-387.939
1.007,-4.000,-2.962,73.669,98.572,-407.837
3.432,-3.286,-3.424,152.466,128.540,-373.413
4.000,-3.443,-4.000,121.582,135.071,-295.898
4.000,-3.652,-3.854,50.842,14.404,-214.294
3.386,-3.007,-2.078,30.884,-201.172,-30.212
-0.267,-2.502,-0.312,56.641,-374.695,260.925
-3.888,-2.485,0.865,96.069,-380.127,502.869
-4.000,-2.233,1.072,177.002,-194.153,580.872
-4.000,-0.157,3.996,243.958,61.096,512.329
-3.994,-1.003,2.882,351.990,214.844,382.263
-2.923,-0.126,3.580,219.299,229.858,194.336
-2.574,0.117,2.540,36.499,134.705,20.386
-1.737,-0.009,1.361,-190.491,-8.057,-104.919
-0.837,-0.550,0.066,-344.116,-107.849,-193.054
-0.046,-1.037,-0.899,-371.155,-103.760,-251.160
0.561,-1.259,-1.239,-282.471,-38.818,-254.883
0.874,-1.305,-1.048,-111.450,3.662,-197.571
0.901,-1.401,-0.508,25.085,3.113,-101.501
0.752,-1.569,0.018,87.830,-4.639,-2.563
0.303,-1.621,0.449,102.844,0.916,71.960
-0.131,-1.570,0.771,100.891,4.456,110.291
-0.394,-1.449,0.992,87.524,-0.793,113.281
-0.594,-1.288,1.092,57.617,-16.968,97.717
-0.704,-1.152,1.017,11.536,-32.898,79.407
-0.754,-1.104,0.847,-36.926,-35.339,60.364
-0.691,-1.071,0.633,-67.627,-25.452,43.579
-0.530,-1.031,0.426,-76.416,-9.216,33.325
-0.357,-1.016,0.228,-70.923,7.874,30.762
-0.220,-1.016,0.060,-64.087,17.822,34.302
-0.133,-1.026,-0.078,-59.875,14.343,39.673
-0.053,-1.066,-0.186,-56.702,-0.793,44.006
-0.004,-1.148,-0.224,-49.683,-23.010,47.668
0.012,-1.268,-0.213,-38.513,-44.189,54.138
-0.041,-1.435,-0.197,-29.358,-59.387,67.932
-0.148,-1.616,-0.167,-24.963,-68.298,88.196
-0.263,-1.746,-0.149,-24.292,-69.824,109.253
-0.343,-1.847,-0.108,-27.283,-67.444,123.840
-0.401,-1.923,-0.140,-37.537,-62.683,133.972
-0.395,-1.964,-0.259,-54.260,-59.326,140.320
-0.359,-2.004,-0.412,-68.054,-60.425,143.005
-0.233,-2.060,-0.600,-76.721,-66.101,146.545
-0.142,-2.169,-0.793,-86.487,-72.815,151.733
-0.088,-2.336,-0.937,-93.079,-80.322,165.039
-0.048,-2.505,-0.949,-88.501,-90.942,189.575
-0.163,-2.554,-0.833,-77.881,-104.187,223.267
-0.322,-2.473,-0.649,-73.975,-116.577,254.150
-0.503,-2.252,-0.388,-71.167,-126.587,266.968
-0.681,-2.041,-0.093,-72.144,-131.409,253.418
-0.776,-1.874,-0.063,-82.397,-129.028,220.154
-0.911,-1.375,0.059,-92.651,-121.948,182.251
-0.733,-0.784,0.101,-104.675,-104.248,184.326
-0.430,-0.679,0.073,-90.698,-63.293,157.959
-0.313,-0.456,0.147,-68.909,-30.823,135.376
-0.207,-0.217,0.266,-27.893,-19.104,124.634
-0.132,0.009,0.449,-0.610,-21.729,107.666
-0.090,0.260,0.685,11.414,-28.809,79.529
0.080,0.434,0.816,10.620,-29.663,41.809
0.332,0.484,0.805,-5.981,-26.184,8.118
0.501,0.451,0.781,-16.296,-31.006,0.916
0.757,0.494,0.920,-6.836,-46.692,17.761
0.865,0.605,1.220,11.414,-57.800,40.161
0.828,0.636,1.494,21.423,-51.331,62.805
0.759,0.622,1.756,14.709,-32.166,87.158
0.510,0.759,2.104,12.024,-11.353,113.647
-0.286,1.001,2.664,21.362,2.991,138.000
-1.134,1.298,3.282,31.494,9.155,151.001
-1.805,1.442,3.649,18.921,7.996,136.353
-2.188,1.306,3.486,-26.794,4.883,93.140
-2.044,1.003,2.844,-88.196,1.831,28.748
-1.444,0.659,1.962,-134.277,1.221,-43.640
-0.750,0.297,1.121,-144.287,5.310,-100.647
-0.169,-0.037,0.543,-129.150,12.329,-125.061
0.302,-0.400,0.236,-94.421,19.470,-127.075
0.674,-0.657,0.112,-51.514,26.917,-118.286
0.930,-0.782,0.058,-13.794,35.217,-103.638
1.090,-0.821,0.013,12.329,39.429,-87.341
1.122,-0.830,0.003,29.419,32.898,-68.726
1.068,-0.821,0.046,36.621,14.221,-51.697
0.947,-0.777,0.159,36.865,-9.766,-40.161
0.784,-0.730,0.307,33.997,-31.921,-31.128
0.620,-0.685,0.453,32.166,-46.631,-23.376
0.486,-0.661,0.591,33.203,-51.941,-18.372
0.381,-0.659,0.702,36.194,-49.500,-13.916
0.317,-0.684,0.778,40.466,-42.786,-8.667
0.261,-0.726,0.847,44.067,-35.583,-2.991
0.226,-0.781,0.912,43.335,-28.748,2.380
0.206,-0.821,0.961,37.048,-23.010,8.118
0.157,-0.840,0.975,25.940,-18.555,13.733
0.113,-0.837,0.958,13.245,-17.029,18.494
0.077,-0.799,0.935,0.793,-18.372,20.996
0.058,-0.785,0.894,-8.484,-19.775,21.057
0.056,-0.777,0.848,-14.893,-19.531,19.165
0.059,-0.755,0.809,-15.808,-17.761,16.174
0.059,-0.749,0.788,-12.329,-13.672,13.550
0.065,-0.767,0.771,-8.423,-8.667,10.315
0.080,-0.770,0.753,-4.883,-4.028,7.324
0.103,-0.785,0.735,-1.526,0.183,4.456
0.141,-0.820,0.713,0.244,3.235,1.404
0.192,-0.845,0.695,-0.793,4.700,-0.793
0.231,-0.847,0.672,-4.578,4.395,-0.549
0.247,-0.835,0.659,-8.972,3.479,2.747
0.235,-0.806,0.642,-13.367,4.639,7.568
0.231,-0.775,0.622,-15.564,7.812,11.353
0.248,-0.729,0.602,-15.442,11.108,12.939
0.243,-0.701,0.584,-13.550,13.062,13.977
0.233,-0.689,0.575,-10.559,13.245,15.869
0.228,-0.688,0.590,-8.789,10.620,16.907
0.230,-0.688,0.619,-10.315,5.066,16.418
0.228,-0.676,0.635,-16.846,-1.587,15.442
0.216,-0.667,0.623,-24.780,-6.409,15.198
0.206,-0.642,0.606,-29.541,-7.202,16.296

-0.261,0.946,1.941,69.397,-4.272,-71.594
-0.331,1.079,2.125,91.187,16.296,-70.740
-0.299,1.188,2.157,101.929,51.697,-70.862
-0.206,1.342,2.116,111.328,90.820,-75.867
-0.122,1.475,2.043,120.728,118.286,-85.022
-0.150,1.458,1.986,115.845,126.953,-102.539
-0.333,1.374,2.018,105.774,123.779,-130.188
-0.552,1.269,2.032,104.614,123.230,-158.020
-0.843,1.034,1.889,107.849,142.517,-175.598
-1.145,0.577,1.490,108.337,183.838,-180.115
-1.297,-0.121,0.930,97.229,228.210,-172.607
-1.436,-0.802,0.230,59.692,262.268,-158.142
-1.973,-1.364,-0.551,-4.089,275.330,-140.137
-2.720,-1.946,-1.542,-89.111,260.071,-119.324
-3.186,-2.857,-2.553,-182.251,228.943,-127.197
-3.323,-3.970,-2.983,-232.361,216.614,-201.233
-2.288,-4.000,-3.192,-179.443,277.527,-350.403
-0.681,-4.000,-3.183,-73.181,400.269,-515.869
1.408,-4.000,-2.520,38.940,366.943,-507.446
2.921,-4.000,-2.172,149.841,229.065,-334.167
3.341,-3.042,-2.293,159.790,129.517,-108.337
3.312,-2.008,-3.178,106.018,57.251,101.563
2.511,-1.572,-3.719,27.283,45.959,222.778
0.884,-1.222,-2.942,45.288,6.897,243.469
-0.764,-1.093,-1.240,158.813,-97.107,206.970
-2.018,-1.345,0.566,228.394,-187.744,144.592
-2.728,-1.353,1.984,233.032,-215.881,78.552
-2.763,-1.156,2.742,203.491,-185.669,13.184
-2.469,-0.966,2.890,147.583,-125.671,-37.170
-2.058,-0.842,2.577,81.665,-62.866,-61.768
-1.535,-0.926,2.122,20.081,-23.621,-82.703
-1.096,-1.036,1.719,-31.677,-13.550,-110.718
-0.608,-1.176,1.235,-72.266,-14.526,-129.639
-0.170,-1.328,0.736,-95.520,-8.423,-130.188
0.157,-1.405,0.319,-92.468,5.554,-108.276
0.314,-1.416,0.043,-68.848,16.724,-73.547
0.370,-1.400,-0.037,-33.875,12.634,-37.720
0.278,-1.363,0.078,5.127,0.732,-7.751
0.086,-1.324,0.287,34.180,-9.338,15.320
-0.183,-1.318,0.528,48.340,-16.968,30.334
-0.370,-1.323,0.734,49.377,-19.714,31.616
-0.441,-1.330,0.831,38.574,-16.418,21.240
-0.396,-1.309,0.796,20.081,-8.667,6.897
-0.285,-1.274,0.675,-0.305,-3.723,-2.991
-0.159,-1.266,0.521,-19.836,-4.272,-7.751
-0.066,-1.243,0.375,-35.461,-6.897,-8.972
-0.016,-1.201,0.258,-46.326,-11.108,-7.446
0.030,-1.149,0.150,-54.565,-18.494,-5.310
0.046,-1.150,0.060,-59.998,-29.541,-4.395
0.019,-1.178,0.004,-59.998,-41.809,-2.563
-0.011,-1.240,-0.024,-55.542,-51.453,2.258
-0.070,-1.341,-0.036,-49.561,-58.105,10.620
-0.099,-1.452,-0.049,-42.542,-62.683,20.569
-0.104,-1.554,-0.052,-35.522,-64.941,30.762
-0.120,-1.607,-0.057,-29.236,-65.552,43.030
-0.120,-1.635,-0.060,-23.437,-66.956,57.312
-0.136,-1.653,-0.075,-21.423,-68.420,73.059
-0.152,-1.681,-0.125,-27.466,-68.848,88.501
-0.195,-1.702,-0.231,-39.124,-66.162,101.257
-0.239,-1.715,-0.363,-49.988,-62.622,113.647
-0.305,-1.745,-0.494,-56.641,-62.195,125.977
-0.369,-1.766,-0.599,-57.800,-64.758,137.085
-0.372,-1.734,-0.661,-53.040,-71.777,143.433
-0.354,-1.713,-0.697,-42.847,-81.665,145.081
-0.299,-1.728,-0.716,-29.724,-90.881,146.912
-0.244,-1.759,-0.708,-13.916,-95.825,153.259
-0.209,-1.823,-0.667,2.441,-95.825,164.917
-0.188,-1.827,-0.571,18.250,-94.055,179.565
-0.222,-1.735,-0.421,32.837,-93.018,191.650
-0.274,-1.543,-0.225,43.945,-96.313,194.214
-0.320,-1.349,-0.033,45.044,-106.201,182.190
-0.298,-1.137,0.090,36.926,-122.620,156.799
-0.203,-0.965,0.205,27.649,-140.198,125.000
-0.111,-0.859,0.304,19.897,-154.175,97.717
-0.036,-0.835,0.375,12.939,-160.706,83.862
0.050,-0.864,0.493,10.132,-156.433,81.360
0.107,-0.781,0.635,9.216,-139.343,86.365
0.080,-0.586,0.738,6.592,-118.469,94.666
0.094,-0.337,0.795,3.662,-106.445,96.191
0.162,-0.137,0.834,-0.122,-106.812,83.496
0.251,0.007,0.888,-8.057,-112.915,66.223
0.310,0.118,0.936,-10.437,-118.958,56.213
0.339,0.158,0.970,-4.761,-116.394,57.556
0.295,0.195,1.048,4.456,-100.830,70.374
0.172,0.351,1.279,19.470,-78.552,89.111
-0.158,0.661,1.787,38.452,-62.561,103.760
-0.757,0.939,2.613,56.580,-56.641,108.337
-1.648,1.228,3.685,68.604,-56.213,108.826
-2.456,1.459,4.000,61.401,-51.758,104.248
-2.709,1.280,4.000,21.790,-28.564,71.472
-2.244,0.813,3.921,-42.969,16.296,14.709
-1.391,0.261,2.549,-128.845,68.298,-46.204
-0.533,-0.142,1.116,-200.806,89.478,-89.661
0.114,-0.480,0.059,-233.093,67.688,-104.858
0.552,-0.725,-0.508,-224.670,25.146,-102.539
0.917,-0.870,-0.755,-190.247,-7.141,-98.083
1.197,-0.969,-0.838,-140.747,-22.217,-95.886
1.327,-1.068,-0.782,-85.449,-28.687,-88.257
1.293,-1.168,-0.591,-28.687,-34.668,-71.594
1.137,-1.197,-0.266,22.461,-44.067,-51.880
0.878,-1.195,0.140,59.814,-54.688,-36.011
0.649,-1.180,0.527,78.430,-62.500,-23.499
0.436,-1.183,0.835,81.116,-64.331,-10.498
0.232,-1.163,1.100,72.815,-58.716,3.784
0.042,-1.086,1.276,55.725,-47.729,18.616
-0.124,-0.997,1.349,34.790,-36.011,31.921
-0.279,-0.908,1.347,14.587,-24.963,42.664
-0.377,-0.818,1.305,-0.671,-14.648,47.546
-0.413,-0.719,1.233,-10.315,-5.798,46.143
-0.411,-0.664,1.137,-17.639,0.916,39.917
-0.357,-0.660,1.009,-24.231,5.981,29.724
-0.260,-0.687,0.893,-29.297,8.423,17.151
-0.169,-0.744,0.784,-32.715,8.789,3.967
-0.058,-0.795,0.694,-33.691,8.484,-4.944
0.052,-0.849,0.613,-33.386,9.033,-10.376
0.134,-0.892,0.536,-31.372,11.292,-10.864
0.196,-0.906,0.490,-27.588,14.771,-7.019
0.240,-0.885,0.463,-22.827,18.188,-1.160
0.256,-0.840,0.446,-18.677,20.325,5.615

0.828,-0.127,1.923,197.266,74.463,-115.784
0.589,-0.151,2.122,216.736,111.328,-41.931
0.210,-0.062,2.191,225.525,166.931,46.753
-0.315,-0.066,2.076,214.905,242.126,126.221
-0.865,-0.138,1.773,165.649,322.632,177.551
-1.450,-0.207,1.208,88.684,380.005,194.397
-1.888,-0.162,0.387,-1.282,393.555,178.467
-2.229,-0.130,-0.532,-104.309,347.839,121.765
-2.477,-0.249,-1.508,-200.806,248.230,26.062
-2.617,-0.610,-2.371,-267.212,122.559,-99.915
-2.777,-1.370,-2.886,-267.761,8.667,-238.159
-2.801,-2.372,-3.000,-204.407,-51.941,-350.220
-2.688,-3.426,-2.843,-96.008,-54.749,-424.683
-1.655,-4.000,-2.369,54.382,-36.499,-473.755
-0.093,-4.000,-1.187,213.196,-33.447,-476.929
1.515,-4.000,0.344,293.762,-24.109,-380.005
2.498,-4.000,1.164,270.630,-2.197,-237.061
2.817,-4.000,1.096,182.312,52.124,-87.646
2.304,-3.350,0.228,66.956,128.967,52.856
1.243,-2.438,-0.732,-32.532,165.161,176.392
0.045,-1.434,-1.092,-71.350,130.432,267.334
-0.959,-0.749,-0.873,-47.302,46.265,291.077
-1.595,-0.354,-0.202,9.460,-46.814,245.667
-2.167,-0.096,0.650,51.636,-130.737,153.381
-2.346,-0.139,1.256,55.969,-175.903,47.852
-2.104,-0.262,1.426,30.273,-165.527,-47.791
-1.552,-0.471,1.240,-3.723,-108.887,-113.464
-0.952,-0.676,0.977,-27.832,-51.636,-144.714
-0.519,-0.835,0.805,-37.537,-19.165,-146.423
-0.288,-0.981,0.717,-35.034,-5.554,-131.592
-0.165,-1.089,0.649,-26.917,2.869,-110.535
-0.073,-1.174,0.586,-19.165,13.916,-90.393
-0.013,-1.224,0.491,-14.648,25.696,-71.106
0.013,-1.224,0.412,-11.414,33.386,-50.110
0.015,-1.182,0.370,-6.470,35.034,-29.114
-0.006,-1.133,0.334,-2.808,32.593,-12.939
-0.055,-1.109,0.290,-2.808,27.649,-3.540
-0.119,-1.100,0.251,-5.432,20.691,-0.793
-0.192,-1.079,0.241,-8.484,11.658,-0.061
-0.252,-1.053,0.248,-9.521,1.770,0.977
-0.288,-1.044,0.261,-9.277,-5.493,1.648
-0.321,-1.034,0.278,-7.874,-11.047,2.563
-0.340,-1.025,0.284,-5.249,-14.771,4.089
-0.323,-1.068,0.271,-4.578,-15.869,4.211
-0.298,-1.171,0.220,-9.094,-16.235,4.822
-0.286,-1.308,0.131,-17.456,-18.860,8.728
-0.300,-1.442,0.056,-27.649,-24.231,16.113
-0.272,-1.537,0.003,-36.621,-31.616,24.475
-0.220,-1.588,-0.039,-43.274,-41.260,31.433
-0.214,-1.617,-0.080,-48.767,-52.063,41.565
-0.248,-1.642,-0.140,-54.382,-60.974,60.364
-0.316,-1.654,-0.210,-60.120,-65.552,85.754
-0.462,-1.661,-0.269,-63.843,-63.171,112.854
-0.578,-1.688,-0.339,-65.186,-54.382,136.719
-0.600,-1.712,-0.424,-62.256,-42.603,152.344
-0.615,-1.725,-0.474,-54.810,-34.485,162.292
-0.665,-1.733,-0.500,-44.250,-34.058,172.791
-0.658,-1.766,-0.516,-36.987,-38.818,182.312
-0.590,-1.872,-0.560,-39.673,-45.166,187.012
-0.519,-1.931,-0.581,-45.959,-54.443,189.880
-0.623,-1.847,-0.475,-44.556,-67.871,195.923
-0.692,-1.674,-0.320,-36.316,-82.520,198.853
-0.645,-1.514,-0.196,-25.635,-94.910,188.354
-0.504,-1.430,-0.055,-14.709,-101.501,170.654
-0.344,-1.349,0.006,-10.498,-100.098,158.691
-0.192,-1.268,0.046,-7.507,-93.262,157.288
-0.052,-1.202,0.132,-3.723,-83.252,164.062
0.000,-1.099,0.238,-0.183,-71.045,174.438
0.040,-0.971,0.347,-0.244,-59.387,181.152
0.135,-0.826,0.452,-9.094,-54.749,177.734
0.131,-0.608,0.539,-30.212,-61.157,167.847
0.098,-0.380,0.609,-57.373,-78.186,154.358
0.071,-0.183,0.642,-82.581,-100.769,135.620
0.125,0.004,0.663,-99.365,-116.638,113.831
0.190,0.221,0.685,-100.037,-119.385,92.285
0.237,0.356,0.788,-82.703,-110.352,74.890
0.320,0.404,0.926,-54.993,-90.881,64.392
0.358,0.371,1.081,-24.902,-65.002,63.354
0.326,0.274,1.255,-4.944,-38.147,72.998
0.213,0.266,1.549,4.517,-17.517,89.111
0.003,0.458,2.003,7.141,-6.897,106.140
-0.410,0.955,2.701,7.019,0.610,121.765
-1.307,1.374,3.485,13.550,21.240,142.700
-2.271,1.655,3.992,1.953,60.791,176.453
-2.815,1.670,3.786,-29.846,96.191,198.059
-2.708,1.460,3.061,-81.421,115.112,168.518
-2.063,1.162,2.018,-141.907,122.498,82.214
-1.242,0.836,0.974,-181.458,114.868,-29.114
-0.382,0.431,0.247,-183.289,87.036,-126.648
0.405,-0.051,-0.161,-154.968,50.964,-189.880
0.911,-0.539,-0.346,-110.046,19.287,-215.881
1.245,-0.963,-0.365,-61.584,-0.244,-212.158
1.482,-1.209,-0.236,-15.137,-10.864,-185.608
1.619,-1.295,-0.006,22.217,-15.686,-146.240
1.551,-1.222,0.245,43.640,-11.047,-99.731
1.415,-1.111,0.463,52.063,-0.977,-55.908
1.207,-1.020,0.560,52.246,9.277,-20.447
1.003,-0.930,0.599,49.194,13.306,4.028
0.851,-0.844,0.624,43.457,7.812,13.977
0.707,-0.796,0.654,36.377,-6.042,14.160
0.590,-0.799,0.691,31.128,-22.339,11.353
0.498,-0.816,0.736,30.212,-33.508,8.301
0.416,-0.845,0.787,34.973,-37.537,7.568
0.385,-0.909,0.857,42.542,-34.790,11.108
0.325,-0.960,0.939,49.133,-25.024,20.386
0.275,-0.963,1.003,49.011,-11.536,32.227
0.222,-0.924,1.037,40.894,-2.808,41.199
0.162,-0.871,1.041,26.306,-2.319,45.288
0.107,-0.820,1.006,8.179,-8.545,43.152
0.068,-0.774,0.968,-9.521,-19.348,35.400
0.028,-0.742,0.924,-24.170,-28.687,26.428
0.037,-0.725,0.873,-33.203,-32.410,18.188
0.069,-0.716,0.812,-36.072,-29.846,12.085
0.087,-0.713,0.763,-33.447,-22.766,9.949
0.093,-0.703,0.731,-27.039,-13.306,11.536
0.115,-0.690,0.717,-19.104,-4.333,12.451
0.148,-0.687,0.715,-12.695,1.587,11.353
0.172,-0.677,0.711,-9.766,4.211,9.827
0.194,-0.658,0.700,-10.254,4.333,7.629

-1.661,-1.333,-1.156,-107.117,105.408,-40.833
-1.589,-1.560,-1.424,-109.436,94.910,-124.329
-1.471,-1.870,-1.469,-89.722,85.571,-213.440
-1.238,-2.258,-1.334,-54.138,82.581,-287.231
-0.891,-2.736,-1.186,-15.686,85.144,-339.966
-0.404,-3.329,-1.082,25.146,83.191,-369.507
0.241,-3.835,-0.804,76.782,68.542,-359.924
1.128,-3.866,-0.233,127.747,36.865,-299.133
1.803,-3.324,0.237,158.142,32.837,-195.190
1.990,-2.717,0.163,149.902,69.397,-70.435
1.843,-2.245,-0.182,109.680,119.141,58.472
1.450,-1.769,-0.653,82.642,160.339,173.462
0.906,-1.349,-0.863,96.008,181.763,263.184
0.172,-1.000,-0.740,125.061,167.480,311.340
-0.410,-0.842,-0.331,148.315,110.168,302.673
-0.805,-0.896,0.238,162.109,23.010,241.821
-1.072,-1.034,0.826,155.212,-67.993,148.010
-1.175,-1.174,1.311,117.798,-137.695,46.448
-1.044,-1.335,1.560,64.270,-167.908,-31.494
-0.761,-1.464,1.534,5.493,-158.691,-66.528
-0.497,-1.477,1.300,-40.894,-126.831,-64.514
-0.362,-1.411,1.041,-68.909,-91.980,-44.067
-0.357,-1.252,0.855,-83.496,-65.002,-18.616
-0.348,-1.031,0.738,-90.088,-46.753,12.878
-0.365,-0.891,0.620,-85.022,-34.668,33.203
-0.408,-0.839,0.497,-76.660,-27.954,30.273
-0.389,-0.812,0.427,-69.275,-28.687,12.695
-0.317,-0.823,0.390,-67.139,-39.124,-7.263
-0.254,-0.901,0.377,-67.749,-55.603,-23.926
-0.219,-1.038,0.390,-62.622,-72.205,-36.377
-0.161,-1.177,0.442,-52.551,-82.092,-45.776
-0.098,-1.346,0.489,-43.945,-84.473,-46.875
-0.050,-1.514,0.501,-40.405,-81.665,-36.255
-0.066,-1.627,0.497,-41.199,-76.111,-16.235
-0.059,-1.681,0.471,-43.030,-69.092,5.798
-0.093,-1.676,0.441,-46.814,-61.035,27.405
-0.142,-1.643,0.389,-53.772,-50.781,47.974
-0.146,-1.596,0.305,-60.547,-37.354,63.171
-0.132,-1.584,0.211,-64.026,-23.621,72.632
-0.109,-1.604,0.121,-64.880,-12.207,79.895
-0.088,-1.661,0.073,-63.477,-4.333,83.801
-0.105,-1.749,0.076,-63.599,-1.282,85.449
-0.297,-1.938,-0.007,-65.857,-7.202,81.482
-0.437,-1.330,0.081,-87.585,-13.855,112.061
-0.395,-1.371,-0.142,-94.727,-3.174,146.606
-0.425,-1.277,-0.199,-79.407,10.376,143.860
-0.379,-1.177,-0.194,-39.673,15.198,137.268
-0.342,-1.109,-0.201,-3.113,11.780,127.808
-0.261,-1.128,-0.204,22.217,2.441,118.530
-0.103,-1.205,-0.193,37.292,-8.179,107.971
0.101,-1.288,-0.168,47.668,-16.235,96.680
0.293,-1.384,-0.100,57.800,-20.752,93.933
0.433,-1.413,-0.007,59.937,-25.879,105.896
0.384,-1.325,0.139,55.847,-35.339,123.779
0.370,-1.133,0.280,41.199,-49.072,134.399
0.360,-0.970,0.372,17.151,-65.063,135.193
0.267,-0.787,0.411,-6.104,-80.322,131.409
0.186,-0.605,0.444,-21.362,-93.750,124.268
0.242,-0.453,0.467,-26.855,-103.210,111.694
0.278,-0.325,0.499,-22.400,-106.384,99.121
0.319,-0.190,0.591,-13.611,-103.455,91.370
0.418,-0.061,0.722,2.869,-92.834,86.304
0.449,0.037,0.904,20.264,-78.491,85.999
0.495,0.100,1.064,25.818,-65.186,90.332
0.505,0.075,1.217,18.188,-56.824,96.436
0.389,0.046,1.388,3.235,-53.284,107.483
0.165,0.119,1.633,-14.221,-51.941,121.948
-0.068,0.289,1.956,-33.203,-48.889,133.972
-0.370,0.704,2.449,-37.720,-39.612,145.325
-1.090,1.177,3.123,-18.372,-17.822,165.466
-1.957,1.410,3.639,-7.690,19.897,195.862
-2.534,1.440,3.592,-30.457,58.899,208.740
-2.522,1.363,3.029,-66.284,86.060,172.363
-1.928,1.163,2.169,-109.741,102.783,88.013
-1.087,0.834,1.227,-150.208,100.281,-5.981
-0.343,0.405,0.509,-162.537,74.402,-74.585
0.204,-0.042,0.115,-145.630,40.039,-112.244
0.650,-0.474,-0.063,-113.464,17.395,-127.563
1.050,-0.814,-0.174,-78.003,14.709,-128.540
1.353,-1.007,-0.242,-41.687,24.170,-114.441
1.522,-1.063,-0.217,-8.301,32.715,-84.290
1.526,-1.022,-0.106,16.296,33.691,-45.898
1.413,-0.927,0.002,29.175,28.381,-11.353
1.196,-0.801,0.124,36.133,18.188,10.620
1.027,-0.676,0.256,41.077,5.432,19.897
0.856,-0.603,0.401,44.678,-4.944,20.569
0.647,-0.554,0.582,51.453,-14.343,20.264
0.433,-0.511,0.802,59.570,-23.376,20.752
0.240,-0.511,1.015,62.927,-30.884,17.090
0.122,-0.525,1.172,58.105,-35.583,8.484
0.048,-0.551,1.262,47.913,-39.368,-0.366
0.020,-0.583,1.296,35.034,-41.443,-5.127
0.008,-0.600,1.274,23.437,-39.307,-7.935
0.006,-0.594,1.214,15.381,-32.043,-9.277
0.015,-0.579,1.127,9.949,-22.888,-10.132
0.050,-0.597,1.024,6.714,-15.015,-12.390
0.122,-0.630,0.917,5.615,-9.644,-16.785
0.204,-0.675,0.822,7.019,-6.897,-21.790
0.288,-0.745,0.746,9.155,-6.226,-25.146
0.360,-0.801,0.710,11.292,-6.042,-26.245
0.415,-0.818,0.688,12.268,-5.310,-25.146
0.445,-0.808,0.678,11.353,-5.188,-21.667
0.445,-0.784,0.665,9.216,-5.920,-16.235
0.430,-0.771,0.660,7.507,-5.676,-10.559
0.405,-0.752,0.668,8.118,-3.174,-5.798
0.407,-0.725,0.674,10.864,2.014,-2.747
0.405,-0.709,0.671,12.817,6.531,0.183
0.378,-0.693,0.664,13.245,8.484,4.456
0.354,-0.683,0.661,11.719,7.751,7.507
0.305,-0.668,0.665,8.911,5.310,9.338
0.284,-0.635,0.668,6.653,2.808,9.644
0.267,-0.601,0.680,3.845,1.099,7.690
0.249,-0.591,0.667,0.916,0.305,6.836
0.244,-0.577,0.662,-0.183,0.671,6.836
0.223,-0.561,0.663,1.160,1.404,6.653
0.209,-0.562,0.668,3.174,1.709,4.761
0.226,-0.571,0.666,4.944,1.953,1.160
0.240,-0.570,0.678,6.592,1.892,-1.831
0.244,-0.588,0.692,7.202,1.404,-3.784

0.010,1.050,1.921,130.615,33.569,-214.172
-0.033,1.046,1.978,157.227,72.205,-205.444
-0.214,0.967,2.006,176.208,111.023,-188.416
-0.533,0.849,1.976,194.702,151.306,-161.133
-0.964,0.609,1.672,191.772,198.730,-131.592
-1.373,0.225,1.139,157.715,247.070,-114.075
-1.714,-0.259,0.476,106.506,280.640,-113.037
-2.200,-0.663,-0.206,46.936,285.339,-119.446
-2.898,-1.036,-0.964,-18.005,260.315,-127.441
-3.469,-1.753,-1.860,-84.839,218.567,-144.287
-4.000,-2.851,-2.513,-160.645,162.903,-180.054
-3.911,-4.000,-2.790,-199.097,113.831,-255.371
-2.378,-4.000,-2.674,-135.803,92.041,-388.916
-0.722,-4.000,-2.056,22.949,93.628,-498.596
1.372,-4.000,-1.290,169.861,116.577,-453.674
2.948,-3.933,-1.158,233.521,174.805,-270.508
3.682,-2.856,-1.891,223.572,255.859,-25.757
3.518,-2.008,-2.881,161.011,300.476,173.401
2.074,-1.327,-2.987,125.854,241.699,296.753
0.241,-1.080,-1.967,143.433,84.167,362.366
-1.702,-1.307,-0.299,187.195,-70.618,361.084
-2.447,-1.479,1.251,221.069,-137.878,275.330
-2.480,-1.356,2.372,206.848,-132.935,113.708
-2.262,-0.940,2.904,137.329,-109.192,-24.353
-2.146,-0.483,2.828,51.697,-82.458,-64.087
-1.771,-0.286,2.211,-32.349,-42.480,-47.363
-1.192,-0.311,1.375,-106.873,0.000,-42.419
-0.693,-0.425,0.569,-145.264,28.137,-67.261
-0.261,-0.555,0.011,-152.100,31.982,-97.778
0.080,-0.787,-0.250,-125.671,12.634,-115.417
0.328,-1.005,-0.227,-85.266,-8.545,-114.075
0.367,-1.206,-0.087,-50.476,-19.531,-97.229
0.317,-1.385,0.050,-22.583,-21.545,-64.392
0.232,-1.549,0.191,2.686,-18.616,-27.100
0.114,-1.652,0.369,26.245,-13.672,5.981
-0.064,-1.644,0.610,44.067,-9.644,36.560
-0.262,-1.533,0.832,54.199,-3.235,62.256
-0.422,-1.376,0.943,53.955,8.423,81.116
-0.524,-1.215,0.937,42.542,22.156,90.881
-0.549,-1.056,0.844,25.696,30.518,88.928
-0.507,-0.943,0.710,5.310,28.076,74.890
-0.425,-0.911,0.534,-19.409,16.479,54.321
-0.333,-0.921,0.341,-44.128,1.160,34.180
-0.242,-0.953,0.182,-59.998,-14.221,19.043
-0.156,-1.032,0.063,-66.101,-26.672,11.658
-0.130,-1.154,-0.008,-64.636,-34.668,12.634
-0.154,-1.260,-0.025,-55.786,-38.879,21.484
-0.172,-1.332,-0.001,-41.931,-40.466,33.386
-0.203,-1.394,0.055,-28.259,-41.016,44.189
-0.226,-1.443,0.090,-18.494,-39.856,54.565
-0.221,-1.476,0.069,-14.526,-38.147,65.918
-0.208,-1.513,0.008,-18.433,-39.734,78.430
-0.235,-1.583,-0.084,-27.649,-45.349,92.041
-0.236,-1.658,-0.203,-41.138,-54.016,104.614
-0.218,-1.796,-0.334,-54.443,-65.369,112.549
-0.140,-1.973,-0.483,-65.735,-77.942,118.958
-0.092,-2.154,-0.605,-71.594,-90.759,127.258
-0.154,-2.272,-0.664,-66.833,-99.976,142.944
-0.281,-2.233,-0.635,-53.101,-105.225,165.344
-0.434,-2.032,-0.480,-30.945,-108.154,187.927
-0.585,-1.750,-0.265,-8.057,-106.323,202.759
-0.648,-1.476,-0.089,1.709,-98.694,205.017
-0.604,-1.244,0.005,-0.366,-91.492,193.542
-0.553,-1.106,0.040,-7.507,-89.539,174.744
-0.482,-1.039,0.053,-16.602,-95.886,157.288
-0.416,-1.028,0.080,-26.123,-109.131,143.250
-0.371,-1.032,0.120,-37.659,-121.704,133.179
-0.288,-0.987,0.196,-47.058,-126.709,123.535
-0.169,-0.870,0.311,-46.387,-124.878,116.638
-0.047,-0.778,0.390,-39.185,-116.455,116.821
0.024,-0.763,0.408,-35.828,-101.685,121.155
0.055,-0.675,0.416,-37.720,-87.402,126.770
0.085,-0.513,0.485,-35.767,-78.430,125.305
0.125,-0.340,0.615,-27.161,-73.730,113.525
0.147,-0.195,0.764,-22.034,-73.120,98.511
0.148,-0.123,0.871,-22.705,-76.416,85.815
0.153,-0.089,0.923,-26.367,-82.825,75.806
0.141,-0.089,0.965,-30.762,-87.646,67.566
0.170,-0.083,0.981,-34.241,-86.487,60.364
0.201,-0.109,0.984,-40.283,-82.397,56.091
0.218,-0.104,0.997,-46.021,-79.468,58.411
0.185,-0.054,1.036,-46.692,-76.416,67.200
0.102,-0.040,1.086,-44.983,-67.383,78.186
0.056,0.018,1.191,-36.560,-49.622,88.562
-0.002,0.210,1.407,-19.470,-29.480,96.619
-0.173,0.474,1.771,-1.282,-12.024,103.943
-0.598,0.674,2.163,16.785,3.601,116.516
-1.021,0.760,2.486,23.437,21.667,135.925
-1.407,0.785,2.617,8.240,39.978,143.738
-1.538,0.766,2.473,-19.592,56.030,117.065
-1.247,0.627,2.020,-60.730,68.542,54.932
-0.728,0.389,1.410,-106.079,63.843,-12.573
-0.316,0.135,0.898,-127.441,36.743,-58.044
0.008,-0.151,0.598,-122.925,6.104,-81.177
0.243,-0.403,0.451,-100.647,-9.766,-93.079
0.473,-0.570,0.340,-70.435,-5.798,-101.074
0.700,-0.696,0.216,-41.260,8.728,-105.835
0.866,-0.801,0.137,-16.724,18.372,-101.807
0.939,-0.869,0.140,3.906,15.686,-87.402
0.925,-0.882,0.231,21.851,7.141,-66.895
0.823,-0.857,0.348,35.278,2.686,-46.814
0.673,-0.802,0.478,44.495,5.676,-29.358
0.541,-0.719,0.579,47.791,12.451,-12.939
0.432,-0.660,0.653,43.823,17.090,-1.221
0.334,-0.598,0.703,34.241,14.465,3.052
0.266,-0.586,0.720,22.644,3.479,0.427
0.233,-0.610,0.723,11.230,-11.719,-6.226
0.231,-0.653,0.737,4.395,-25.635,-14.099
0.244,-0.694,0.775,1.953,-32.837,-18.494
0.245,-0.734,0.815,3.601,-31.799,-16.235
0.247,-0.767,0.859,9.033,-22.949,-8.179
0.251,-0.777,0.888,15.930,-8.179,2.319
0.244,-0.780,0.880,21.423,6.836,13.000
0.231,-0.781,0.861,24.109,17.761,20.508
0.228,-0.759,0.839,21.912,20.752,21.423
0.233,-0.750,0.812,15.442,15.564,16.479
0.235,-0.748,0.789,5.920,5.432,8.789
0.248,-0.757,0.774,-2.686,-5.127,1.526
0.251,-0.773,0.770,-8.301,-12.024,-2.441

0.251,0.870,1.707,69.214,-20.569,-134.521
0.323,0.952,1.737,76.111,-17.334,-149.719
0.359,0.924,1.698,86.548,-9.399,-162.964
0.252,0.806,1.672,100.708,2.258,-170.776
0.012,0.727,1.720,118.347,18.433,-164.124
-0.315,0.707,1.775,135.925,45.166,-142.578
-0.751,0.823,1.923,152.954,85.022,-115.967
-1.408,0.978,2.069,172.852,135.498,-86.731
-2.116,0.978,1.961,180.237,193.176,-60.547
-2.748,0.728,1.543,151.184,249.023,-57.373
-3.171,0.219,0.741,99.609,297.974,-80.994
-3.420,-0.478,-0.333,36.987,329.346,-121.399
-3.583,-1.368,-1.533,-27.954,340.515,-170.227
-3.747,-2.579,-2.718,-90.210,327.637,-231.506
-3.622,-3.832,-3.617,-145.813,284.241,-308.716
-3.434,-4.000,-3.901,-183.044,220.947,-415.039
-2.619,-4.000,-3.584,-155.090,138.489,-553.040
-0.907,-4.000,-2.781,-70.251,27.649,-685.120
1.365,-4.000,-1.232,113.831,-85.266,-720.520
3.869,-4.000,0.025,288.025,-93.018,-542.908
4.000,-4.000,0.017,279.846,33.020,-279.419
4.000,-4.000,-0.605,115.173,156.189,-3.723
3.293,-3.354,-1.432,-10.010,169.189,269.531
0.427,-2.371,-1.564,-42.847,84.717,511.902
-2.189,-1.838,-0.949,-19.226,-22.766,668.640
-3.258,-1.228,0.194,28.625,-94.238,666.321
-3.770,-0.473,1.335,132.935,-100.586,486.511
-3.527,0.228,2.121,187.683,-88.501,247.986
-2.853,0.466,2.425,140.320,-83.313,86.670
-2.237,0.368,2.160,57.800,-79.773,9.644
-1.779,0.268,1.809,-4.944,-65.674,-19.958
-1.416,0.124,1.493,-23.315,-37.964,-51.270
-0.981,-0.101,1.178,-31.738,-6.470,-89.294
-0.596,-0.413,0.861,-48.096,13.062,-119.202
-0.303,-0.775,0.567,-62.012,20.447,-134.888
-0.097,-1.072,0.391,-61.584,22.034,-136.597
-0.015,-1.228,0.332,-45.837,23.743,-122.070
0.045,-1.283,0.347,-28.687,27.161,-93.201
0.096,-1.326,0.369,-14.587,32.349,-58.716
0.121,-1.344,0.370,-4.211,37.048,-27.344
0.114,-1.313,0.362,2.075,38.574,-5.981
0.095,-1.254,0.345,5.676,34.668,4.822
0.077,-1.231,0.327,4.272,24.414,9.521
0.032,-1.245,0.319,-1.465,10.254,14.343
-0.055,-1.245,0.331,-5.188,-0.854,23.987
-0.108,-1.233,0.336,-6.287,-3.906,36.560
-0.093,-1.232,0.296,-7.751,-1.221,46.814
-0.045,-1.268,0.221,-11.475,1.282,53.711
-0.023,-1.318,0.130,-14.954,-2.075,59.814
0.002,-1.351,0.055,-16.602,-12.390,67.627
0.013,-1.378,-0.004,-18.250,-27.527,77.393
0.000,-1.399,-0.061,-22.095,-42.114,90.149
-0.066,-1.425,-0.117,-28.015,-53.772,106.689
-0.174,-1.451,-0.171,-33.447,-61.096,124.939
-0.297,-1.442,-0.207,-35.828,-63.782,142.151
-0.392,-1.442,-0.232,-35.583,-64.148,156.189
-0.457,-1.429,-0.236,-32.776,-64.697,163.818
-0.492,-1.414,-0.203,-26.184,-68.481,165.710
-0.519,-1.413,-0.135,-20.142,-76.050,164.551
-0.552,-1.428,-0.065,-18.005,-85.510,162.048
-0.552,-1.483,-0.010,-20.691,-94.788,155.823
-0.519,-1.494,0.035,-24.353,-100.647,145.569
-0.447,-1.520,0.089,-23.071,-102.905,139.038
-0.367,-1.547,0.133,-22.522,-100.037,142.212
-0.334,-1.546,0.156,-23.437,-90.759,153.748
-0.312,-1.497,0.181,-20.691,-74.402,167.664
-0.228,-1.448,0.213,-16.663,-53.528,177.124
-0.129,-1.368,0.243,-15.625,-35.828,182.251
-0.080,-1.232,0.238,-20.813,-28.320,185.364
0.026,-1.087,0.202,-31.738,-30.823,181.641
0.083,-0.985,0.167,-44.678,-39.063,169.556
0.123,-0.880,0.113,-53.406,-47.119,151.917
0.269,-0.716,0.068,-49.438,-53.711,128.784
0.406,-0.533,0.098,-32.349,-59.631,105.530
0.526,-0.376,0.196,-15.808,-67.627,91.370
0.558,-0.259,0.334,-5.676,-76.660,84.595
0.595,-0.196,0.512,-0.366,-84.045,79.956
0.579,-0.150,0.705,-0.305,-87.280,75.378
0.493,-0.111,0.826,-0.977,-85.022,73.059
0.454,-0.058,0.862,-1.587,-81.177,71.533
0.469,-0.059,0.869,-0.610,-76.538,67.383
0.490,-0.077,0.881,-3.357,-70.801,64.209
0.451,-0.026,0.920,-7.812,-69.519,65.735
0.363,0.021,0.994,-8.240,-73.608,69.763
0.212,0.065,1.150,-4.395,-76.660,71.716
-0.006,0.209,1.420,6.104,-76.843,71.655
-0.347,0.494,1.874,25.818,-75.195,69.336
-0.879,0.792,2.488,45.349,-70.374,69.946
-1.558,0.943,3.082,54.504,-59.204,75.745
-1.977,1.031,3.328,36.865,-37.354,74.768
-2.095,0.956,3.065,0.061,-8.118,45.349
-1.781,0.762,2.461,-41.138,22.766,-6.775
-1.194,0.442,1.750,-73.608,51.147,-59.143
-0.579,0.082,1.089,-89.539,64.819,-94.666
-0.090,-0.272,0.624,-87.891,58.716,-112.976
0.348,-0.545,0.333,-73.853,41.260,-122.131
0.712,-0.770,0.153,-58.594,23.926,-128.296
1.002,-0.919,0.023,-47.302,10.376,-129.333
1.160,-1.030,-0.015,-34.302,-1.404,-119.080
1.212,-1.090,0.011,-20.325,-12.573,-98.145
1.159,-1.111,0.130,-7.751,-24.658,-75.989
1.039,-1.105,0.312,3.540,-35.583,-56.458
0.901,-1.087,0.510,11.414,-43.030,-38.635
0.752,-1.041,0.698,12.634,-44.617,-21.912
0.597,-0.994,0.846,6.836,-41.138,-6.958
0.454,-0.920,0.943,-3.357,-36.987,6.042
0.321,-0.833,0.990,-15.198,-34.668,17.761
0.208,-0.745,0.984,-25.269,-32.166,25.513
0.107,-0.682,0.959,-29.297,-26.001,30.212
0.032,-0.639,0.934,-26.733,-14.160,34.241
-0.004,-0.594,0.917,-19.531,0.061,36.987
-0.024,-0.566,0.904,-11.047,12.573,37.231
-0.020,-0.556,0.892,-4.089,20.630,35.828
-0.017,-0.559,0.897,-0.916,23.254,33.081
-0.005,-0.571,0.896,-3.601,23.315,28.870
0.028,-0.584,0.862,-12.146,21.729,23.926
0.055,-0.594,0.804,-21.606,18.372,20.264
0.089,-0.607,0.744,-27.954,15.381,17.883
0.130,-0.613,0.702,-28.076,14.832,15.320

-0.302,0.927,1.646,98.206,29.480,-55.176
-0.447,0.932,1.642,110.413,49.866,-53.894
-0.665,0.876,1.605,112.793,72.266,-57.922
-0.865,0.823,1.482,106.934,96.375,-73.608
-1.038,0.760,1.179,95.337,118.896,-101.013
-1.211,0.632,0.756,82.214,133.118,-137.207
-1.391,0.461,0.344,84.106,135.132,-179.687
-1.670,0.162,-0.028,106.323,131.042,-219.604
-1.969,-0.334,-0.379,141.846,132.812,-244.812
-2.077,-1.109,-0.727,172.302,151.489,-254.211
-2.139,-1.827,-1.033,178.162,187.988,-253.113
-2.528,-2.716,-1.361,149.231,223.389,-246.094
-2.536,-3.953,-1.708,82.947,237.427,-243.774
-1.642,-4.000,-2.001,-8.911,215.027,-279.785
-0.603,-4.000,-1.756,-53.955,143.799,-345.032
0.314,-4.000,-1.353,-21.973,64.514,-362.427
1.118,-3.975,-1.397,10.681,55.969,-295.776
1.896,-2.294,-2.195,31.677,156.921,-164.551
2.846,-0.938,-3.309,43.274,258.728,-23.315
2.818,-0.599,-3.828,78.369,269.287,111.084
1.968,-0.556,-2.877,113.464,206.482,281.616
0.775,-1.878,-1.685,232.117,75.317,306.519
-0.617,-2.559,0.551,282.532,-67.505,212.402
-1.492,-2.865,2.357,238.159,-178.223,112.244
-1.855,-2.503,3.003,118.896,-207.397,34.241
-1.994,-1.915,2.802,-17.944,-154.541,15.076
-2.057,-1.084,2.221,-112.671,-74.463,45.044
-1.915,-0.469,1.338,-157.471,-1.709,72.510
-1.647,-0.072,0.530,-155.212,43.823,59.570
-1.236,0.070,0.147,-113.831,49.011,11.169
-0.796,-0.087,0.043,-68.848,24.780,-49.438
-0.448,-0.422,0.010,-44.006,-0.793,-101.196
-0.132,-0.855,0.054,-26.794,-15.503,-131.409
0.181,-1.246,0.185,-12.390,-22.888,-136.108
0.344,-1.515,0.359,-2.380,-27.893,-117.188
0.375,-1.642,0.497,3.479,-31.128,-80.444
0.283,-1.643,0.580,6.897,-28.320,-38.208
0.163,-1.557,0.595,9.827,-17.212,-0.610
0.085,-1.437,0.543,8.301,-2.747,27.710
0.026,-1.337,0.454,1.465,6.836,44.739
-0.008,-1.262,0.368,-6.714,7.385,52.002
-0.011,-1.208,0.296,-15.564,1.160,53.528
0.005,-1.172,0.219,-25.024,-6.653,53.772
0.019,-1.157,0.133,-32.349,-13.672,55.542
0.006,-1.186,0.073,-36.438,-19.592,58.716
-0.028,-1.235,0.041,-38.452,-24.719,61.829
-0.035,-1.257,0.034,-40.710,-28.198,63.171
-0.035,-1.281,0.026,-45.898,-29.480,65.857
-0.040,-1.325,0.005,-56.519,-29.053,72.021
-0.016,-1.370,-0.050,-72.693,-28.259,80.078
-0.007,-1.405,-0.114,-93.872,-30.090,87.524
-0.009,-1.460,-0.181,-114.502,-34.424,90.149
0.011,-1.529,-0.182,-127.930,-38.391,83.557
-0.204,-1.842,-0.141,-132.080,-43.640,69.153
-0.280,-1.405,-0.200,-142.273,-48.340,78.430
-0.263,-1.336,-0.307,-148.560,-32.654,124.817
-0.286,-1.314,-0.414,-107.727,-2.319,139.099
-0.281,-1.156,-0.280,-40.710,14.832,158.203
-0.300,-1.096,-0.130,17.151,17.883,168.945
-0.325,-1.092,-0.004,47.241,19.287,165.833
-0.323,-1.114,0.073,59.082,18.799,150.635
-0.273,-1.186,0.146,58.838,12.329,125.916
-0.155,-1.249,0.243,47.363,0.305,96.619
0.052,-1.326,0.296,29.358,-16.113,70.374
0.231,-1.453,0.344,6.531,-42.114,58.838
0.335,-1.521,0.458,-13.733,-72.571,68.420
0.348,-1.492,0.624,-28.076,-95.276,90.393
0.282,-1.376,0.729,-39.795,-99.609,114.441
0.267,-1.293,0.682,-50.903,-84.839,132.874
0.250,-1.120,0.598,-52.673,-61.035,144.043
0.258,-0.879,0.560,-35.950,-43.091,147.888
0.266,-0.719,0.579,-13.306,-38.513,143.921
0.263,-0.604,0.620,-0.793,-46.326,132.202
0.245,-0.546,0.684,4.456,-60.730,114.075
0.264,-0.607,0.699,1.282,-73.669,92.041
0.373,-0.644,0.733,-5.798,-78.369,70.129
0.509,-0.627,0.753,-9.521,-78.186,56.335
0.584,-0.610,0.831,-9.766,-81.421,56.274
0.565,-0.489,0.974,-10.864,-86.365,68.665
0.506,-0.351,1.075,-16.541,-86.548,86.731
0.347,-0.213,1.166,-28.320,-82.397,106.323
0.101,-0.056,1.223,-41.748,-76.660,126.587
-0.174,0.186,1.336,-49.927,-71.228,141.052
-0.524,0.611,1.610,-48.889,-65.918,149.231
-1.054,1.131,2.033,-38.208,-56.885,158.203
-1.830,1.519,2.559,-25.696,-39.917,173.401
-2.439,1.803,2.858,-21.790,-10.193,182.129
-2.693,1.935,2.738,-28.076,26.001,154.480
-2.380,1.808,2.238,-47.607,61.035,83.862
-1.665,1.337,1.515,-73.669,84.839,-10.010
-0.926,0.798,0.861,-82.581,85.938,-91.980
-0.293,0.246,0.457,-72.205,66.589,-148.499
0.224,-0.261,0.236,-54.688,42.358,-182.983
0.726,-0.723,0.069,-34.607,27.527,-198.914
1.191,-1.134,-0.037,-12.817,22.156,-194.763
1.519,-1.421,-0.063,8.789,20.386,-167.603
1.653,-1.526,0.025,31.128,16.785,-123.657
1.605,-1.462,0.199,47.791,12.085,-72.388
1.464,-1.321,0.350,54.138,10.071,-24.536
1.225,-1.147,0.450,51.453,11.719,10.803
0.972,-0.959,0.537,46.265,12.146,31.860
0.733,-0.827,0.609,40.161,6.470,41.199
0.544,-0.750,0.696,34.058,-2.808,42.236
0.396,-0.712,0.784,29.907,-12.573,39.734
0.270,-0.711,0.872,27.771,-20.203,37.415
0.188,-0.723,0.941,27.771,-22.949,36.438
0.126,-0.732,0.997,28.442,-21.057,37.170
0.065,-0.715,1.023,27.527,-17.212,37.354
0.031,-0.682,1.025,25.085,-14.099,35.034
0.020,-0.660,0.998,19.043,-13.184,30.151
0.006,-0.650,0.954,11.963,-14.526,25.085
0.011,-0.646,0.911,7.690,-15.442,19.409
0.049,-0.654,0.878,5.859,-13.916,14.099
0.089,-0.665,0.831,4.395,-10.803,10.742
0.135,-0.688,0.789,2.319,-6.348,7.080
0.182,-0.725,0.752,0.610,-0.610,2.441
0.237,-0.758,0.717,0.732,4.883,-0.610
0.285,-0.783,0.672,1.221,8.545,-1.465
0.342,-0.794,0.632,0.671,10.742,-2.197

-1.428,0.549,1.079,168.152,80.994,-133.911
-1.710,0.408,0.757,193.359,112.793,-145.813
-1.823,0.189,0.294,216.919,154.297,-176.575
-1.854,-0.122,-0.139,227.661,196.899,-214.783
-1.878,-0.496,-0.474,234.009,228.577,-247.620
-1.937,-1.074,-0.769,246.094,253.174,-256.470
-1.833,-1.745,-1.016,239.685,278.931,-230.408
-2.092,-2.291,-1.267,200.439,301.208,-188.049
-2.600,-2.863,-1.725,116.699,312.439,-148.499
-3.020,-3.564,-2.309,-13.611,300.903,-156.128
-2.222,-4.000,-2.738,-146.912,265.137,-257.812
-0.261,-4.000,-2.558,-206.055,189.392,-435.059
1.362,-4.000,-2.176,-138.916,95.032,-539.062
2.910,-3.994,-1.783,-7.996,41.748,-442.871
3.738,-2.943,-2.021,77.026,81.604,-206.360
3.926,-2.310,-2.445,95.520,150.452,35.461
2.818,-1.851,-2.295,112.061,145.203,223.816
0.867,-1.641,-1.484,130.005,50.293,347.351
-0.952,-1.575,-0.374,143.005,-51.025,374.084
-2.038,-1.375,0.805,147.461,-107.971,303.223
-2.429,-0.942,1.824,135.010,-123.596,186.584
-2.419,-0.568,2.330,89.050,-121.521,98.755
-2.220,-0.309,2.204,14.709,-94.299,53.650
-1.818,-0.189,1.656,-54.443,-42.542,17.761
-1.297,-0.283,1.047,-94.971,1.526,-25.574
-0.708,-0.569,0.612,-105.713,18.799,-69.824
-0.238,-0.885,0.389,-101.563,14.221,-99.304
0.092,-1.148,0.233,-91.614,4.883,-106.079
0.283,-1.311,0.136,-77.515,-0.549,-94.666
0.346,-1.338,0.120,-59.021,-4.883,-69.275
0.298,-1.284,0.156,-40.466,-8.179,-34.180
0.162,-1.198,0.193,-25.940,-7.629,0.793
-0.019,-1.099,0.236,-13.489,-5.127,28.015
-0.202,-1.023,0.304,-1.953,-5.127,44.312
-0.322,-1.009,0.388,5.432,-7.202,48.706
-0.351,-1.058,0.434,6.104,-8.728,42.725
-0.292,-1.128,0.433,0.183,-9.338,31.921
-0.191,-1.208,0.391,-9.766,-12.207,22.217
-0.098,-1.286,0.319,-22.827,-17.151,18.677
-0.046,-1.340,0.221,-36.194,-22.095,23.315
-0.018,-1.360,0.104,-45.593,-26.062,33.936
-0.003,-1.344,-0.001,-49.438,-29.602,48.950
-0.031,-1.338,-0.090,-50.171,-33.630,67.017
-0.083,-1.339,-0.187,-47.974,-37.720,85.876
-0.146,-1.326,-0.259,-42.725,-41.565,103.882
-0.220,-1.320,-0.318,-35.767,-45.532,119.507
-0.267,-1.332,-0.363,-28.687,-51.453,130.310
-0.313,-1.338,-0.385,-22.888,-58.838,136.719
-0.365,-1.355,-0.388,-19.226,-66.589,140.259
-0.409,-1.394,-0.372,-17.761,-75.134,140.991
-0.426,-1.456,-0.332,-17.517,-84.045,138.306
-0.432,-1.485,-0.286,-17.029,-92.590,132.019
-0.398,-1.541,-0.232,-17.700,-100.281,123.718
-0.306,-1.618,-0.169,-22.766,-107.727,115.723
-0.246,-1.695,-0.136,-32.227,-115.601,112.488
-0.235,-1.704,-0.120,-41.626,-121.399,116.150
-0.201,-1.676,-0.139,-43.457,-123.840,121.277
-0.108,-1.685,-0.235,-41.504,-120.544,123.657
0.037,-1.682,-0.359,-41.199,-112.549,125.000
0.140,-1.657,-0.438,-29.297,-102.539,125.305
0.226,-1.638,-0.381,-5.127,-96.741,127.380
0.262,-1.607,-0.183,18.921,-101.440,131.165
0.274,-1.490,0.062,31.067,-113.647,135.803
0.233,-1.333,0.270,26.245,-125.244,136.658
0.185,-1.186,0.396,9.705,-134.583,133.301
0.230,-1.099,0.368,-13.611,-140.015,123.962
0.360,-1.048,0.212,-36.316,-140.015,112.183
0.466,-1.000,0.047,-42.236,-137.329,105.713
0.510,-0.937,-0.047,-23.010,-131.592,109.497
0.574,-0.838,-0.062,12.695,-121.826,119.141
0.571,-0.709,0.028,47.424,-114.075,123.230
0.539,-0.491,0.241,61.401,-124.329,118.469
0.327,-0.307,0.636,47.974,-159.790,104.980
-0.127,0.000,1.267,20.142,-204.285,96.191
-0.829,0.788,2.175,11.169,-229.126,103.088
-1.821,1.592,3.359,46.875,-200.989,128.540
-3.092,2.178,4.000,95.337,-114.807,185.364
-4.000,2.517,4.000,137.817,-1.465,247.803
-4.000,2.357,4.000,160.645,110.107,228.210
-3.463,1.670,3.824,103.943,181.885,98.450
-2.089,0.743,2.291,-15.686,177.490,-69.824
-0.940,-0.107,1.119,-127.625,96.436,-197.144
-0.001,-0.860,0.338,-197.815,-1.099,-258.850
0.827,-1.548,-0.290,-213.684,-54.016,-263.977
1.301,-1.905,-0.697,-187.256,-44.189,-231.628
1.545,-1.960,-0.855,-128.357,-5.249,-177.673
1.679,-1.920,-0.834,-55.725,19.592,-113.953
1.658,-1.825,-0.585,9.949,19.470,-56.763
1.461,-1.638,-0.263,55.237,11.841,-15.503
1.165,-1.390,0.041,79.651,4.822,12.634
0.826,-1.199,0.350,90.637,-2.380,33.325
0.516,-1.086,0.609,96.130,-7.690,45.593
0.306,-1.009,0.813,97.778,-6.226,47.974
0.155,-0.926,0.968,89.233,-2.747,44.373
-0.006,-0.878,1.059,74.341,-2.014,42.114
-0.121,-0.844,1.101,55.481,-2.319,42.542
-0.169,-0.816,1.099,36.255,-1.465,40.344
-0.207,-0.786,1.074,19.104,0.000,35.767
-0.232,-0.771,1.034,4.944,0.427,31.311
-0.184,-0.772,0.970,-7.568,2.319,26.550
-0.107,-0.795,0.885,-19.531,5.249,21.973
-0.031,-0.827,0.789,-28.870,6.897,19.226
0.031,-0.846,0.700,-34.485,7.385,17.700
0.098,-0.846,0.611,-36.377,7.446,16.663
0.173,-0.838,0.519,-35.767,8.850,14.221
0.238,-0.865,0.452,-34.241,11.536,9.766
0.292,-0.890,0.399,-31.860,13.672,6.042
0.323,-0.904,0.389,-27.893,13.245,5.554
0.343,-0.890,0.389,-24.109,10.986,8.057
0.334,-0.856,0.400,-21.484,8.606,10.986
0.336,-0.812,0.402,-20.691,7.874,12.329
0.324,-0.811,0.432,-20.508,7.996,10.559
0.320,-0.823,0.467,-17.334,7.141,9.338
0.308,-0.807,0.509,-11.353,4.578,11.230
0.281,-0.798,0.557,-7.812,2.014,13.489
0.286,-0.793,0.554,-7.263,2.136,15.137
0.290,-0.758,0.526,-8.118,2.991,17.517
0.276,-0.721,0.490,-9.033,2.502,20.386
0.257,-0.687,0.459,-9.033,0.183,22.766

-0.769,0.470,1.653,103.210,108.398,-140.503
-0.880,0.419,1.406,103.027,150.879,-129.089
-1.015,0.311,1.058,96.191,187.805,-123.657
-1.166,0.204,0.711,89.661,210.937,-121.155
-1.476,0.162,0.426,90.576,222.290,-121.155
-1.894,0.013,0.046,96.802,230.347,-124.084
-2.244,-0.324,-0.507,95.947,241.028,-135.498
-2.551,-0.776,-1.183,91.370,253.235,-161.987
-2.860,-1.327,-1.900,90.210,266.052,-201.416
-2.992,-2.039,-2.649,84.961,269.897,-248.413
-2.814,-3.107,-3.390,70.007,258.606,-299.988
-1.879,-4.000,-3.869,57.800,229.736,-361.633
-0.251,-4.000,-3.548,110.657,183.838,-437.317
1.783,-4.000,-2.582,222.168,144.226,-466.797
3.740,-4.000,-1.217,313.843,129.028,-353.455
4.000,-3.580,-0.568,288.025,179.749,-121.521
3.304,-2.930,-1.103,166.748,252.014,149.109
1.375,-2.378,-1.793,35.767,249.451,348.633
-0.702,-1.827,-1.663,-24.841,145.630,412.109
-1.786,-1.066,-0.704,24.719,16.235,337.708
-1.998,-0.586,0.590,77.881,-76.843,159.790
-1.814,-0.462,1.460,51.941,-147.766,12.024
-1.599,-0.438,1.572,-8.606,-162.109,-56.213
-1.198,-0.460,1.269,-53.589,-121.521,-70.618
-0.885,-0.482,0.935,-60.486,-74.524,-65.491
-0.584,-0.500,0.719,-37.537,-49.927,-49.500
-0.474,-0.605,0.620,-13.489,-40.588,-35.645
-0.469,-0.768,0.551,5.310,-36.987,-24.597
-0.447,-0.969,0.527,16.235,-31.250,-19.470
-0.403,-1.131,0.529,20.264,-23.437,-21.179
-0.318,-1.241,0.526,22.339,-17.273,-21.484
-0.215,-1.298,0.498,18.066,-14.587,-17.273
-0.170,-1.280,0.463,8.850,-13.367,-7.202
-0.186,-1.192,0.419,1.038,-10.559,8.484
-0.226,-1.106,0.365,-3.113,-6.042,25.818
-0.250,-1.046,0.287,-6.775,-1.892,37.415
-0.262,-1.006,0.211,-10.315,-1.892,40.833
-0.267,-0.971,0.151,-13.550,-6.897,36.987
-0.243,-0.964,0.100,-17.517,-15.137,28.748
-0.192,-1.007,0.036,-24.597,-23.499,19.409
-0.135,-1.084,-0.028,-32.043,-32.288,13.794
-0.128,-1.184,-0.071,-38.574,-41.138,14.221
-0.141,-1.263,-0.087,-43.396,-48.218,20.264
-0.147,-1.298,-0.088,-46.631,-52.856,29.663
-0.180,-1.318,-0.083,-49.744,-55.542,40.588
-0.227,-1.326,-0.098,-53.833,-58.899,51.208
-0.254,-1.336,-0.135,-59.387,-64.331,58.899
-0.264,-1.386,-0.186,-66.589,-72.205,62.805
-0.281,-1.472,-0.226,-72.571,-82.092,66.345
-0.355,-1.547,-0.249,-75.134,-91.431,74.341
-0.399,-1.595,-0.259,-74.402,-95.520,87.219
-0.396,-1.635,-0.258,-72.632,-93.140,100.708
-0.363,-1.660,-0.296,-71.655,-86.670,115.479
-0.331,-1.674,-0.345,-69.946,-82.458,132.751
-0.287,-1.682,-0.414,-65.796,-81.970,150.818
-0.203,-1.744,-0.445,-57.678,-82.825,168.091
-0.041,-1.876,-0.393,-51.147,-81.482,189.636
0.017,-1.940,-0.413,-52.856,-78.430,220.459
-0.019,-1.940,-0.488,-54.565,-74.219,259.094
-0.161,-1.899,-0.536,-54.382,-67.566,298.767
-0.363,-1.803,-0.512,-45.654,-56.824,325.439
-0.393,-1.622,-0.514,-26.917,-40.527,323.792
-0.290,-1.427,-0.541,-12.390,-25.146,292.542
-0.153,-1.233,-0.571,-0.366,-25.391,251.648
-0.066,-1.084,-0.483,9.033,-48.645,213.928
-0.041,-0.966,-0.329,13.733,-89.844,180.603
-0.019,-0.914,-0.106,15.686,-135.498,147.827
0.000,-0.836,0.126,19.226,-171.692,117.371
0.012,-0.802,0.370,19.409,-188.965,94.421
0.045,-0.783,0.575,14.160,-188.660,84.656
0.077,-0.736,0.735,10.071,-177.429,85.632
0.083,-0.630,0.837,9.766,-160.828,89.600
-0.059,-0.545,0.945,10.376,-141.846,90.820
-0.176,-0.433,1.021,7.202,-123.474,83.130
-0.144,-0.247,1.098,2.625,-112.671,63.416
-0.153,-0.055,1.176,-3.601,-114.258,39.185
-0.198,0.141,1.273,-14.709,-125.854,22.217
-0.287,0.278,1.411,-27.222,-139.282,14.343
-0.383,0.376,1.588,-29.175,-141.602,14.526
-0.542,0.486,1.901,-17.456,-124.329,27.039
-0.915,0.685,2.327,5.920,-87.952,53.589
-1.534,0.885,2.847,40.833,-34.790,84.290
-2.202,0.959,3.364,73.730,27.710,104.553
-2.535,0.857,3.640,83.008,87.036,96.191
-2.224,0.663,3.431,59.631,127.686,44.067
-1.601,0.271,2.799,4.456,137.390,-38.147
-0.902,-0.261,1.956,-76.355,115.784,-113.464
-0.246,-0.694,1.141,-149.170,78.247,-153.564
0.288,-1.019,0.465,-189.758,44.128,-159.973
0.720,-1.230,-0.063,-194.092,32.837,-147.156
1.068,-1.316,-0.447,-171.021,45.776,-126.709
1.306,-1.279,-0.654,-127.747,64.209,-97.656
1.425,-1.166,-0.667,-73.120,71.838,-61.707
1.388,-1.037,-0.564,-24.963,68.054,-30.457
1.291,-0.973,-0.412,7.690,56.335,-12.390
1.179,-0.935,-0.227,29.602,40.466,-4.639
1.062,-0.914,-0.034,45.471,24.780,-2.136
0.929,-0.905,0.200,49.500,9.277,1.099
0.750,-0.868,0.443,44.067,-3.601,10.864
0.551,-0.807,0.647,33.142,-11.963,22.583
0.362,-0.713,0.798,21.545,-16.785,32.104
0.182,-0.637,0.909,10.010,-19.714,38.574
0.037,-0.582,0.969,2.930,-21.545,40.710
-0.049,-0.520,1.021,1.526,-23.071,36.499
-0.087,-0.501,1.065,1.282,-22.278,27.405
-0.068,-0.530,1.068,0.916,-17.334,17.212
-0.037,-0.567,1.053,2.075,-9.399,10.071
-0.003,-0.595,1.022,3.845,-1.587,7.568
0.053,-0.636,0.982,3.113,5.493,6.348
0.105,-0.671,0.921,-1.221,10.376,5.615
0.147,-0.698,0.845,-8.545,11.597,5.127
0.194,-0.720,0.759,-17.639,9.460,3.479
0.238,-0.732,0.683,-25.757,5.798,1.038
0.288,-0.749,0.605,-31.311,2.136,-1.282
0.321,-0.789,0.543,-33.508,-0.610,-2.380
0.371,-0.822,0.491,-29.419,-1.526,-2.930
0.432,-0.815,0.478,-20.996,-0.122,-2.075
0.453,-0.845,0.489,-12.634,2.136,2.258
0.461,-0.858,0.493,-5.371,4.700,8.972

-2.060,-1.498,-0.555,2.136,305.359,10.498
-2.696,-1.977,-1.214,-59.082,307.495,7.263
-3.603,-2.294,-1.724,-104.492,298.096,-29.846
-3.485,-2.470,-2.126,-145.264,287.354,-148.743
-2.484,-3.234,-2.420,-195.923,254.578,-377.563
-1.094,-4.000,-2.536,-216.248,175.720,-622.314
0.077,-4.000,-2.523,-124.817,65.674,-724.609
2.228,-4.000,-1.371,47.913,5.798,-524.292
4.000,-4.000,-1.415,223.633,52.368,-255.249
4.000,-3.725,-1.642,209.045,161.072,-71.472
3.991,-2.985,-2.230,132.629,202.393,135.193
2.098,-2.175,-2.113,102.600,133.362,315.308
-0.039,-1.616,-1.266,129.089,16.968,396.545
-1.418,-1.378,-0.083,178.162,-96.985,351.990
-2.256,-1.175,1.260,215.637,-178.589,222.351
-2.661,-0.825,2.357,217.773,-217.957,76.111
-2.470,-0.694,2.804,163.208,-206.970,-24.414
-1.956,-0.732,2.585,61.035,-148.010,-62.805
-1.437,-0.795,1.889,-40.649,-61.035,-74.707
-0.898,-0.856,1.190,-89.539,5.249,-96.558
-0.343,-0.949,0.652,-100.952,22.034,-127.075
0.060,-1.074,0.367,-106.262,-1.343,-150.574
0.284,-1.148,0.210,-104.370,-30.518,-153.870
0.372,-1.207,0.126,-94.055,-44.556,-136.658
0.367,-1.236,0.093,-73.181,-40.283,-104.980
0.315,-1.229,0.129,-40.649,-24.719,-64.941
0.222,-1.216,0.244,-9.949,-11.169,-25.269
0.078,-1.204,0.389,13.916,-5.554,4.761
-0.079,-1.177,0.541,28.564,-3.845,21.057
-0.219,-1.132,0.679,33.020,-2.808,25.208
-0.301,-1.077,0.756,30.396,-0.305,22.217
-0.328,-1.028,0.752,23.010,7.385,17.517
-0.294,-0.991,0.666,11.902,19.653,16.113
-0.229,-0.973,0.536,-0.549,31.738,15.198
-0.146,-0.958,0.388,-11.963,39.307,14.038
-0.059,-0.950,0.257,-22.400,40.100,12.451
0.016,-0.959,0.152,-32.349,34.180,9.033
0.096,-0.976,0.050,-40.894,23.987,2.747
0.166,-0.999,-0.023,-47.668,11.292,-2.747
0.207,-1.043,-0.076,-52.368,-2.869,-4.517
0.227,-1.135,-0.103,-54.565,-16.846,-1.648
0.203,-1.272,-0.107,-55.054,-30.457,6.775
0.135,-1.389,-0.080,-54.443,-44.067,20.081
0.056,-1.454,-0.042,-54.321,-58.105,36.133
-0.028,-1.504,-0.016,-57.129,-70.313,51.697
-0.138,-1.548,-0.016,-62.866,-77.332,67.749
-0.217,-1.555,-0.013,-66.528,-80.933,84.839
-0.299,-1.552,0.001,-67.566,-82.825,100.586
-0.360,-1.562,0.013,-67.749,-84.595,111.694
-0.392,-1.571,0.050,-66.711,-86.975,117.737
-0.395,-1.589,0.105,-68.665,-90.515,118.103
-0.492,-1.937,-0.068,-77.454,-96.741,100.220
-0.578,-1.470,-0.088,-101.318,-109.192,102.966
-0.568,-1.445,-0.254,-110.779,-104.736,160.217
-0.457,-1.674,-0.436,-105.408,-72.083,164.917
-0.383,-1.677,-0.372,-88.623,-41.809,166.565
-0.309,-1.594,-0.288,-48.950,-33.630,170.471
-0.337,-1.561,-0.142,-17.639,-38.574,168.457
-0.322,-1.560,-0.037,-3.845,-47.058,159.424
-0.276,-1.539,-0.000,3.113,-54.199,143.372
-0.115,-1.536,0.013,8.667,-54.626,124.207
0.077,-1.527,0.004,12.573,-49.561,112.732
0.260,-1.575,0.013,14.771,-46.814,116.455
0.414,-1.657,0.033,9.216,-51.758,132.874
0.458,-1.626,0.124,1.160,-65.491,156.677
0.388,-1.421,0.283,-6.470,-79.834,179.077
0.333,-1.113,0.438,-11.597,-87.463,192.322
0.231,-0.824,0.554,-18.372,-88.928,196.045
0.112,-0.536,0.604,-24.780,-89.966,191.956
0.071,-0.256,0.628,-28.564,-95.459,179.016
0.060,-0.057,0.662,-32.471,-106.628,156.860
0.035,0.046,0.695,-33.997,-120.117,131.470
-0.006,0.085,0.748,-33.325,-131.409,109.375
-0.037,0.094,0.850,-26.184,-135.498,93.506
-0.051,0.142,0.984,-12.573,-126.648,85.266
-0.115,0.253,1.152,5.798,-105.408,88.379
-0.296,0.422,1.454,23.499,-80.261,100.952
-0.512,0.762,1.914,44.373,-56.152,114.563
-0.815,1.272,2.636,70.068,-33.752,126.038
-1.517,1.640,3.431,94.360,-7.568,143.799
-2.192,1.742,3.906,79.102,25.940,160.706
-2.558,1.604,3.699,33.447,62.622,141.846
-2.265,1.286,3.016,-17.578,93.262,72.083
-1.554,0.816,2.141,-76.477,108.276,-23.987
-0.853,0.351,1.251,-126.465,97.412,-102.417
-0.325,-0.083,0.633,-147.644,66.528,-147.644
0.112,-0.444,0.271,-142.639,35.706,-168.335
0.515,-0.764,0.044,-121.460,20.935,-176.086
0.869,-1.014,-0.129,-93.445,22.705,-173.950
1.092,-1.162,-0.190,-59.448,26.123,-158.875
1.205,-1.204,-0.126,-24.780,22.522,-132.263
1.233,-1.180,0.020,2.991,14.954,-101.379
1.181,-1.124,0.177,20.508,9.399,-72.510
1.062,-1.026,0.296,28.259,8.667,-48.462
0.928,-0.950,0.392,28.687,10.315,-28.259
0.775,-0.889,0.462,25.452,10.864,-10.986
0.673,-0.830,0.515,20.874,9.888,-1.099
0.592,-0.795,0.556,16.968,6.226,3.540
0.509,-0.766,0.588,15.015,-0.366,7.202
0.442,-0.762,0.623,15.015,-7.507,9.644
0.384,-0.774,0.677,16.907,-12.756,9.644
0.348,-0.772,0.722,21.667,-14.771,10.071
0.310,-0.761,0.766,26.428,-14.404,13.184
0.272,-0.745,0.826,28.931,-13.000,17.517
0.245,-0.712,0.877,28.442,-10.925,20.691
0.216,-0.676,0.923,23.560,-9.644,22.339
0.172,-0.647,0.953,14.893,-9.399,22.583
0.129,-0.646,0.956,4.761,-9.338,22.339
0.105,-0.650,0.947,-3.357,-8.362,20.386
0.112,-0.637,0.927,-8.118,-7.263,16.235
0.120,-0.635,0.898,-11.597,-6.226,12.695
0.128,-0.629,0.863,-13.184,-4.639,11.047
0.138,-0.648,0.820,-12.390,-2.502,9.949
0.141,-0.660,0.792,-9.827,1.404,7.751
0.191,-0.651,0.770,-6.104,6.836,5.371
0.242,-0.660,0.746,-3.784,10.620,3.845
0.260,-0.652,0.724,-3.174,10.376,4.822
0.256,-0.631,0.708,-2.930,7.629,6.226
0.264,-0.628,0.677,-2.808,5.554,5.981

0.299,0.869,1.903,97.534,38.147,-66.040
0.148,1.141,2.184,107.483,49.683,-74.524
-0.121,1.315,2.461,120.728,62.134,-80.261
-0.465,1.374,2.561,125.916,76.294,-75.500
-0.793,1.233,2.427,112.549,96.313,-68.604
-1.192,0.860,2.079,84.351,127.686,-67.078
-1.596,0.485,1.426,44.861,166.260,-56.458
-2.036,0.082,0.629,8.728,204.651,-38.391
-2.620,-0.175,-0.168,-28.198,238.159,-24.841
-3.279,-0.257,-0.910,-53.589,269.165,-44.189
-3.617,-0.597,-1.552,-55.786,289.246,-125.427
-3.729,-1.564,-2.072,-70.313,285.339,-248.535
-3.586,-2.984,-2.577,-112.427,255.676,-376.404
-3.012,-4.000,-2.881,-149.841,212.158,-494.385
-1.713,-4.000,-2.867,-135.559,158.691,-592.163
0.547,-4.000,-2.133,-39.673,87.769,-628.418
2.635,-4.000,-1.015,103.271,20.386,-542.175
3.792,-4.000,-0.318,206.360,22.034,-353.027
3.972,-3.804,-0.941,204.956,129.822,-100.037
3.115,-2.781,-1.829,106.323,221.985,154.785
1.425,-1.858,-2.202,34.790,211.426,363.647
-0.482,-1.286,-1.818,27.954,88.196,475.525
-1.804,-0.823,-0.754,81.726,-49.011,440.002
-2.687,-0.167,0.690,152.527,-127.014,295.837
-2.959,0.183,1.812,184.448,-150.635,127.319
-2.597,0.077,2.329,162.415,-144.897,5.920
-1.921,-0.344,2.333,115.234,-114.258,-50.354
-1.205,-0.711,2.079,64.392,-64.331,-69.336
-0.662,-0.918,1.738,22.766,-22.278,-76.721
-0.265,-1.074,1.389,-7.080,-0.427,-77.087
-0.021,-1.191,1.089,-30.273,8.057,-72.876
0.081,-1.246,0.838,-43.579,10.681,-60.120
0.084,-1.225,0.609,-44.067,15.747,-39.856
0.058,-1.192,0.421,-38.147,26.550,-18.005
0.015,-1.169,0.291,-27.161,38.147,-1.038
-0.011,-1.138,0.224,-11.902,40.955,9.949
-0.038,-1.097,0.219,-0.244,33.325,16.113
-0.076,-1.085,0.265,5.005,20.874,18.433
-0.099,-1.100,0.328,5.554,8.423,18.188
-0.109,-1.131,0.381,2.441,-0.122,17.456
-0.116,-1.166,0.396,-2.625,-4.761,17.395
-0.108,-1.194,0.384,-6.409,-7.080,17.700
-0.067,-1.231,0.352,-8.545,-9.155,17.761
-0.004,-1.278,0.305,-10.193,-10.803,19.897
0.031,-1.326,0.268,-12.573,-11.963,25.940
0.036,-1.352,0.234,-15.930,-12.085,37.048
0.049,-1.382,0.191,-22.278,-11.230,50.232
0.068,-1.400,0.103,-31.372,-9.827,64.270
0.067,-1.421,-0.012,-41.870,-9.766,78.552
0.033,-1.430,-0.135,-52.063,-13.367,92.896
-0.006,-1.420,-0.242,-57.312,-22.217,104.492
-0.063,-1.449,-0.339,-57.068,-35.034,112.061
-0.093,-1.520,-0.427,-56.946,-50.171,116.821
-0.104,-1.592,-0.469,-56.641,-67.017,118.469
-0.140,-1.650,-0.459,-51.453,-83.496,117.859
-0.197,-1.730,-0.441,-42.725,-96.313,119.934
-0.179,-1.809,-0.443,-38.635,-104.553,124.023
-0.187,-1.838,-0.418,-36.865,-110.474,127.380
-0.220,-1.737,-0.356,-29.846,-113.342,131.653
-0.263,-1.576,-0.293,-19.531,-113.159,140.320
-0.250,-1.494,-0.300,-16.357,-110.168,152.771
-0.181,-1.500,-0.354,-26.001,-105.591,157.715
-0.145,-1.493,-0.410,-39.368,-105.103,153.748
-0.135,-1.484,-0.427,-48.157,-112.793,146.423
-0.026,-1.440,-0.404,-55.298,-124.939,132.568
0.086,-1.334,-0.267,-57.495,-138.672,116.028
0.131,-1.171,-0.037,-54.626,-151.367,106.323
0.095,-0.983,0.219,-45.593,-158.020,106.812
0.057,-0.819,0.467,-34.790,-154.724,112.915
0.051,-0.680,0.660,-28.931,-142.395,120.850
0.031,-0.571,0.765,-28.992,-125.977,127.380
0.009,-0.527,0.811,-35.522,-112.488,131.042
-0.050,-0.441,0.859,-49.194,-105.896,129.272
-0.169,-0.289,0.904,-60.242,-103.760,118.958
-0.145,-0.131,0.913,-64.087,-99.548,99.426
-0.019,0.004,0.937,-62.073,-93.933,76.416
0.132,0.145,1.014,-53.589,-90.759,59.265
0.233,0.244,1.133,-39.978,-89.233,53.467
0.270,0.260,1.255,-26.184,-85.876,59.021
0.234,0.275,1.394,-14.404,-77.209,73.975
0.153,0.338,1.562,-4.517,-64.941,97.046
0.038,0.489,1.779,5.859,-51.453,126.038
-0.372,0.737,2.126,28.564,-34.363,163.635
-0.996,0.912,2.531,65.002,-4.028,206.848
-1.502,1.017,2.801,95.215,44.006,237.000
-1.739,1.038,2.775,99.487,92.224,224.304
-1.638,0.938,2.516,63.110,117.188,160.034
-1.276,0.758,2.054,-10.132,102.112,68.787
-0.864,0.463,1.448,-94.849,49.561,-24.292
-0.471,0.157,0.965,-164.734,-21.851,-101.135
-0.096,-0.127,0.670,-202.026,-87.952,-159.607
0.234,-0.398,0.516,-206.421,-127.869,-196.472
0.470,-0.605,0.474,-185.608,-136.597,-207.214
0.632,-0.796,0.486,-148.743,-119.324,-193.787
0.768,-0.898,0.492,-105.042,-87.585,-161.255
0.807,-1.008,0.532,-59.326,-51.819,-121.399
0.835,-1.022,0.582,-12.817,-19.165,-83.618
0.815,-1.015,0.633,21.973,9.033,-51.514
0.740,-0.997,0.650,44.434,28.870,-27.710
0.675,-0.945,0.632,56.030,37.292,-11.475
0.595,-0.900,0.621,58.655,34.302,-1.953
0.527,-0.849,0.631,55.054,23.560,4.150
0.453,-0.796,0.657,46.997,9.277,7.568
0.362,-0.767,0.695,36.804,-4.333,9.033
0.279,-0.736,0.736,26.550,-15.503,10.315
0.221,-0.693,0.771,19.958,-21.729,11.658
0.160,-0.660,0.804,17.944,-22.827,14.648
0.121,-0.627,0.842,20.264,-21.362,20.813
0.067,-0.594,0.882,24.353,-17.761,27.222
0.019,-0.573,0.907,27.588,-12.085,32.654
-0.009,-0.534,0.921,28.198,-6.958,35.645
-0.046,-0.507,0.940,27.283,-4.395,34.241
-0.076,-0.505,0.942,23.376,-3.479,28.076
-0.085,-0.496,0.925,18.005,-3.967,18.555
-0.070,-0.500,0.902,12.634,-6.165,7.568
-0.038,-0.534,0.876,6.348,-9.277,-1.709
-0.000,-0.566,0.867,1.770,-12.024,-7.935
0.032,-0.588,0.866,0.488,-13.000,-12.085
0.057,-0.627,0.866,0.427,-11.414,-13.000

-0.233,1.092,1.763,60.791,10.132,-99.487
-0.032,1.250,1.785,84.595,25.513,-119.019
0.129,1.364,1.704,98.633,33.142,-138.977
0.237,1.305,1.531,100.403,31.860,-158.447
0.253,1.140,1.334,96.680,28.687,-181.458
0.211,1.088,1.212,96.558,28.564,-198.975
0.172,1.157,1.116,114.441,33.630,-204.590
0.066,1.181,1.068,148.743,47.791,-199.646
-0.134,1.216,1.028,186.890,68.970,-178.711
-0.432,1.216,0.928,227.112,100.891,-142.883
-0.734,1.060,0.679,254.822,141.968,-100.220
-1.110,0.730,0.295,256.653,181.458,-64.758
-1.623,0.246,-0.185,229.492,210.571,-43.335
-2.178,-0.330,-0.717,180.725,226.990,-44.922
-2.849,-0.885,-1.274,120.850,227.966,-80.750
-3.591,-1.657,-1.833,56.519,216.492,-141.357
-4.000,-2.670,-2.336,-9.094,190.674,-219.177
-3.984,-3.940,-2.621,-84.778,155.701,-333.557
-2.602,-4.000,-2.559,-154.541,97.168,-488.220
-0.627,-4.000,-1.494,-149.475,-26.978,-630.249
1.269,-4.000,0.207,-25.879,-185.364,-653.076
3.569,-4.000,1.434,126.404,-231.689,-499.390
3.755,-4.000,0.811,169.922,-32.654,-198.120
3.102,-2.607,-1.192,74.463,264.771,174.744
0.972,-1.107,-2.614,-16.968,431.763,469.971
-1.606,0.303,-2.837,-0.122,332.031,612.915
-2.760,0.426,-1.296,147.095,97.778,510.681
-2.853,0.171,0.899,278.442,-59.631,258.545
-2.596,-0.210,2.227,235.901,-116.272,21.362
-1.758,-0.563,2.281,84.778,-135.620,-115.234
-0.927,-0.861,1.605,-48.523,-126.831,-144.226
-0.539,-1.083,1.065,-128.052,-89.783,-126.038
-0.465,-1.243,0.817,-133.423,-48.157,-90.393
-0.445,-1.234,0.710,-97.595,-17.212,-53.894
-0.450,-1.118,0.638,-60.730,-1.770,-30.212
-0.477,-0.962,0.540,-43.701,-1.343,-19.104
-0.540,-0.801,0.446,-38.269,-7.019,-18.005
-0.525,-0.669,0.347,-33.203,-11.902,-20.203
-0.529,-0.640,0.291,-25.635,-13.000,-23.071
-0.552,-0.714,0.295,-12.939,-9.583,-22.705
-0.510,-0.804,0.322,0.549,-1.526,-18.860
-0.419,-0.939,0.341,10.681,8.850,-13.916
-0.306,-1.069,0.366,15.991,18.188,-7.629
-0.231,-1.197,0.379,15.625,23.071,-1.038
-0.179,-1.284,0.394,12.695,23.743,5.371
-0.183,-1.305,0.413,10.437,23.193,11.963
-0.169,-1.245,0.413,9.155,24.597,21.179
-0.165,-1.162,0.396,5.493,27.527,32.471
-0.210,-1.121,0.353,-0.732,30.090,43.945
-0.258,-1.095,0.284,-9.216,31.067,52.246
-0.274,-1.078,0.234,-21.484,28.687,55.237
-0.245,-1.078,0.201,-33.813,21.606,52.673
-0.206,-1.122,0.190,-43.335,9.644,47.363
-0.158,-1.205,0.182,-49.927,-3.235,43.945
-0.150,-1.278,0.174,-52.734,-14.160,46.936
-0.167,-1.324,0.171,-53.467,-20.081,56.702
-0.231,-1.365,0.168,-52.124,-20.935,70.190
-0.244,-1.413,0.140,-51.697,-16.724,83.069
-0.208,-1.460,0.081,-54.932,-9.827,91.980
-0.237,-1.480,-0.018,-58.594,-5.310,99.365
-0.249,-1.496,-0.145,-60.669,-4.883,108.398
-0.164,-1.545,-0.301,-63.965,-6.348,112.061
-0.109,-1.608,-0.442,-66.833,-10.925,109.619
-0.086,-1.685,-0.527,-63.843,-21.606,111.816
-0.036,-1.746,-0.583,-58.533,-36.133,118.713
-0.054,-1.774,-0.566,-50.354,-52.063,125.488
-0.142,-1.790,-0.494,-38.391,-65.369,134.460
-0.201,-1.776,-0.409,-26.794,-71.960,144.409
-0.247,-1.721,-0.311,-14.465,-71.411,148.987
-0.313,-1.642,-0.196,-4.456,-70.618,148.437
-0.395,-1.537,-0.038,2.319,-78.125,143.555
-0.472,-1.383,0.175,6.653,-91.248,131.226
-0.475,-1.231,0.391,4.822,-105.835,112.854
-0.436,-1.200,0.554,-1.953,-118.896,94.055
-0.357,-1.237,0.628,-14.465,-124.939,81.177
-0.261,-1.231,0.662,-33.508,-126.038,75.623
-0.129,-1.246,0.639,-48.096,-125.183,79.163
-0.020,-1.288,0.621,-58.899,-117.920,93.018
0.010,-1.247,0.646,-67.444,-102.234,115.051
-0.010,-1.087,0.690,-69.824,-80.688,135.498
-0.055,-0.850,0.717,-71.472,-60.608,145.386
-0.082,-0.562,0.720,-75.134,-50.537,141.785
-0.047,-0.285,0.736,-79.651,-54.321,125.244
0.013,-0.104,0.763,-84.106,-69.458,101.196
0.075,-0.026,0.789,-87.341,-86.548,79.285
0.167,0.027,0.818,-85.693,-96.375,65.613
0.212,0.110,0.900,-79.651,-96.680,64.148
0.194,0.197,1.024,-71.899,-87.097,78.430
0.123,0.413,1.228,-60.669,-70.313,104.187
-0.143,0.846,1.581,-34.363,-44.250,132.385
-0.638,1.398,2.136,5.371,-4.700,164.246
-1.402,1.827,2.776,53.894,43.457,206.055
-2.124,2.064,3.094,83.252,83.740,252.625
-2.344,2.000,2.806,64.209,95.154,265.808
-2.090,1.628,2.114,-6.592,76.477,210.449
-1.615,1.200,1.272,-93.445,39.856,94.360
-1.125,0.811,0.586,-152.649,-11.475,-37.598
-0.531,0.379,0.178,-172.241,-60.608,-157.471
0.048,-0.127,-0.028,-154.480,-91.431,-241.821
0.516,-0.637,-0.089,-109.680,-93.811,-276.855
0.914,-1.087,-0.025,-48.340,-72.266,-264.343
1.114,-1.353,0.179,15.503,-43.335,-213.867
1.205,-1.466,0.411,66.833,-15.137,-144.226
1.218,-1.466,0.641,105.042,7.141,-76.965
1.129,-1.388,0.791,130.005,28.748,-23.437
0.955,-1.272,0.834,132.751,48.279,15.503
0.764,-1.113,0.805,115.356,55.359,41.748
0.594,-0.963,0.776,91.003,47.302,48.340
0.464,-0.871,0.762,65.430,29.419,39.795
0.355,-0.812,0.762,43.823,8.301,28.625
0.283,-0.768,0.802,30.457,-8.728,22.095
0.222,-0.746,0.862,24.170,-17.517,19.714
0.159,-0.739,0.922,24.841,-17.395,21.057
0.118,-0.724,0.979,28.503,-10.986,24.475
0.073,-0.707,1.012,30.640,-3.052,28.503
0.024,-0.685,1.028,30.334,3.296,31.738
0.003,-0.670,1.030,27.039,8.118,32.166
0.002,-0.674,1.036,18.127,9.888,27.954
0.016,-0.666,1.019,5.798,7.935,20.752

-2.494,-0.577,-1.085,115.784,175.110,-94.788
-2.765,-1.271,-1.542,133.728,227.966,-120.361
-3.107,-1.953,-1.917,127.686,268.433,-164.551
-3.200,-2.722,-2.295,86.060,276.855,-241.943
-2.842,-3.633,-2.469,8.789,243.347,-366.455
-2.170,-4.000,-2.223,-64.087,178.650,-490.356
-0.262,-4.000,-2.133,-46.753,96.313,-528.381
1.772,-4.000,-1.175,91.370,12.512,-544.922
3.939,-4.000,-0.322,242.981,-18.738,-472.168
4.000,-3.994,0.025,245.361,-0.183,-308.655
4.000,-3.551,-0.256,116.882,47.058,-92.529
2.765,-2.852,-0.648,26.550,73.181,163.391
0.488,-2.128,-0.659,9.766,53.101,392.090
-1.754,-1.586,-0.455,11.475,9.644,533.875
-2.992,-0.793,0.092,12.756,-24.048,534.485
-3.481,0.082,0.877,80.078,-48.523,418.274
-3.376,0.688,1.534,118.469,-69.702,272.888
-2.890,0.820,1.671,55.481,-81.665,140.869
-2.391,0.687,1.295,-27.527,-75.745,33.691
-1.840,0.465,0.872,-77.942,-60.730,-50.110
-1.282,0.164,0.624,-81.116,-45.776,-112.061
-0.856,-0.252,0.547,-62.622,-33.630,-146.545
-0.548,-0.716,0.532,-44.678,-24.780,-157.104
-0.345,-1.138,0.576,-30.579,-22.278,-151.062
-0.213,-1.441,0.626,-16.968,-23.437,-135.132
-0.150,-1.597,0.690,-9.033,-23.499,-113.098
-0.156,-1.624,0.732,-5.493,-19.165,-81.543
-0.190,-1.578,0.737,-7.141,-9.705,-41.443
-0.266,-1.495,0.691,-13.794,5.615,-1.221
-0.383,-1.364,0.631,-20.874,25.818,34.790
-0.477,-1.225,0.557,-22.583,44.800,64.392
-0.518,-1.138,0.484,-21.851,57.373,83.374
-0.507,-1.119,0.395,-21.484,63.293,89.966
-0.468,-1.137,0.317,-22.400,64.148,86.731
-0.412,-1.188,0.227,-24.597,61.768,79.895
-0.387,-1.253,0.118,-27.710,57.007,72.266
-0.359,-1.283,0.023,-30.945,47.363,67.139
-0.332,-1.275,-0.070,-35.156,32.532,65.918
-0.292,-1.318,-0.163,-43.701,14.648,66.345
-0.259,-1.395,-0.228,-57.434,-3.479,69.275
-0.260,-1.468,-0.260,-70.190,-21.301,76.843
-0.270,-1.512,-0.271,-79.346,-36.987,89.539
-0.303,-1.540,-0.259,-85.083,-47.546,105.774
-0.370,-1.580,-0.242,-87.585,-50.232,123.718
-0.452,-1.598,-0.211,-85.449,-45.654,139.893
-0.537,-1.571,-0.160,-77.881,-37.170,149.353
-0.541,-1.553,-0.129,-68.970,-26.550,148.804
-0.497,-1.563,-0.131,-62.195,-15.381,141.785
-0.390,-1.557,-0.127,-55.237,-7.812,136.475
-0.214,-1.569,-0.104,-47.852,-8.484,138.428
-0.039,-1.652,-0.062,-42.480,-15.564,148.132
0.052,-1.689,0.014,-41.138,-23.804,166.809
0.093,-1.685,0.102,-41.443,-29.846,190.125
0.102,-1.569,0.223,-40.344,-32.043,211.121
-0.029,-1.480,0.272,-42.053,-30.640,220.337
0.105,-1.538,0.229,-52.856,-25.696,199.829
-0.199,-0.530,0.485,-80.444,-29.541,197.937
0.113,-0.466,0.310,-81.604,-33.081,214.539
0.155,-0.375,0.302,-95.276,-27.283,179.749
0.292,-0.112,0.366,-79.773,-23.315,138.367
0.438,0.089,0.457,-55.237,-32.837,103.638
0.504,0.108,0.587,-45.898,-49.255,72.510
0.553,0.060,0.706,-47.363,-66.345,49.805
0.571,0.040,0.774,-53.650,-79.163,38.147
0.454,0.006,0.858,-51.392,-86.670,35.156
0.366,0.007,0.930,-51.819,-83.069,37.964
0.346,0.081,0.989,-53.162,-69.092,40.161
0.426,0.220,1.032,-59.082,-54.077,36.072
0.502,0.302,1.038,-72.388,-43.457,31.616
0.508,0.389,1.058,-79.956,-42.480,36.072
0.383,0.558,1.215,-71.594,-50.964,50.232
0.175,0.766,1.492,-51.270,-58.899,71.045
-0.365,0.908,1.849,-28.015,-55.481,100.342
-1.098,1.012,2.215,-8.423,-35.645,140.564
-1.594,1.134,2.415,-3.296,-7.080,170.776
-1.775,1.192,2.335,-11.658,20.630,160.583
-1.641,1.163,2.026,-34.912,39.490,115.479
-1.311,1.038,1.562,-64.453,36.133,57.129
-0.923,0.793,1.106,-85.693,12.939,-5.798
-0.534,0.493,0.806,-84.839,-14.343,-66.772
-0.193,0.186,0.681,-64.880,-31.311,-115.662
0.073,-0.095,0.624,-37.292,-31.921,-148.315
0.292,-0.399,0.572,-7.629,-23.071,-165.222
0.569,-0.696,0.536,20.325,-13.123,-165.955
0.815,-0.909,0.576,42.053,-7.019,-152.954
0.952,-1.078,0.662,50.049,-3.601,-128.357
0.970,-1.151,0.736,50.049,-1.526,-95.703
0.936,-1.132,0.798,47.729,-0.916,-59.998
0.853,-1.045,0.827,40.222,1.343,-27.527
0.739,-0.938,0.807,28.076,6.958,-1.343
0.615,-0.822,0.749,17.883,12.512,18.188
0.497,-0.699,0.714,15.503,13.000,29.663
0.387,-0.600,0.703,16.724,9.338,34.424
0.285,-0.559,0.702,19.409,3.296,35.095
0.218,-0.535,0.712,23.621,-2.869,32.410
0.159,-0.516,0.744,28.870,-7.324,27.100
0.118,-0.518,0.788,33.508,-8.850,21.790
0.088,-0.522,0.842,37.476,-8.057,18.860
0.051,-0.515,0.897,39.124,-6.226,19.958
0.016,-0.508,0.932,35.706,-4.150,22.217
-0.017,-0.494,0.940,29.480,-2.014,22.400
-0.040,-0.485,0.934,24.048,-0.244,19.836
-0.039,-0.481,0.908,20.569,1.404,15.503
-0.029,-0.495,0.889,18.799,2.502,10.315
0.004,-0.529,0.873,18.555,3.418,4.700
0.061,-0.578,0.861,17.883,3.357,-1.343
0.116,-0.620,0.860,15.808,2.319,-7.080
0.159,-0.646,0.857,12.878,0.366,-10.193
0.189,-0.677,0.854,9.460,-1.404,-9.827
0.228,-0.722,0.831,5.798,-1.038,-8.118
0.266,-0.767,0.799,2.625,1.038,-7.141
0.310,-0.753,0.772,2.197,2.869,-5.554
0.341,-0.730,0.764,2.197,4.761,-2.869
0.321,-0.721,0.754,1.282,6.958,1.160
0.286,-0.696,0.734,0.366,9.399,7.690
0.249,-0.667,0.695,0.366,10.925,13.306
0.235,-0.657,0.665,1.343,11.414,15.808
0.223,-0.656,0.655,3.601,10.986,15.625
0.212,-0.655,0.660,7.996,9.460,15.442

-0.193,1.405,1.570,27.344,-24.414,5.249
-0.385,1.561,1.592,39.429,-14.893,0.610
-0.700,1.597,1.502,39.490,-1.953,-13.428
-0.954,1.552,1.285,29.785,13.062,-39.368
-1.137,1.376,0.930,14.832,28.625,-82.397
-1.254,1.104,0.478,8.789,40.527,-139.282
-1.307,0.757,0.038,24.841,43.640,-197.754
-1.401,0.362,-0.271,60.608,39.368,-247.131
-1.554,-0.198,-0.427,106.995,38.879,-281.189
-1.603,-0.876,-0.516,143.250,50.537,-293.762
-1.788,-1.556,-0.565,154.968,70.374,-291.077
-1.918,-2.076,-0.654,133.179,87.219,-290.955
-2.026,-2.455,-0.896,75.989,90.881,-302.795
-2.259,-2.776,-1.182,-6.165,65.552,-327.759
-2.492,-3.210,-1.323,-66.162,9.949,-367.065
-2.375,-3.994,-0.955,-63.477,-51.453,-426.453
-1.942,-4.000,-0.291,22.400,-87.708,-487.122
-0.979,-4.000,0.327,149.170,-52.673,-485.779
0.553,-4.000,0.265,222.473,66.711,-380.920
1.783,-3.602,-0.483,218.567,211.792,-209.412
2.495,-2.769,-1.261,188.171,299.377,-33.020
2.497,-2.170,-1.710,166.077,300.049,106.995
1.824,-1.824,-1.630,155.823,223.083,205.933
0.555,-1.631,-0.959,162.292,103.027,273.499
-0.787,-1.538,0.052,195.190,-5.798,303.528
-1.968,-1.420,1.133,231.445,-67.810,284.851
-2.478,-1.084,1.900,246.277,-73.975,223.145
-2.326,-0.780,2.252,216.980,-42.786,135.620
-1.930,-0.654,2.158,140.869,-6.042,66.162
-1.525,-0.632,1.660,46.509,12.268,29.724
-1.240,-0.670,1.182,-34.973,6.226,1.282
-0.987,-0.744,0.820,-91.248,-12.756,-32.288
-0.771,-0.741,0.580,-121.948,-31.738,-59.998
-0.611,-0.739,0.448,-129.333,-41.809,-74.036
-0.513,-0.751,0.386,-116.882,-38.452,-71.045
-0.453,-0.766,0.354,-90.027,-23.560,-50.781
-0.406,-0.785,0.342,-60.913,-4.822,-23.132
-0.421,-0.832,0.363,-37.659,8.179,-0.854
-0.434,-0.884,0.402,-22.522,10.376,14.404
-0.463,-0.956,0.454,-14.832,3.845,22.827
-0.480,-1.058,0.498,-11.963,-3.906,26.367
-0.467,-1.175,0.521,-9.705,-7.324,30.334
-0.461,-1.271,0.514,-5.859,-3.296,39.856
-0.464,-1.317,0.477,2.197,8.850,56.702
-0.461,-1.325,0.401,13.916,26.245,77.576
-0.410,-1.321,0.295,21.179,42.786,94.543
-0.372,-1.328,0.166,14.893,49.988,104.187
-0.354,-1.353,0.007,-1.099,41.504,109.741
-0.301,-1.433,-0.130,-22.400,20.691,112.244
-0.283,-1.524,-0.220,-47.424,-4.395,113.098
-0.344,-1.577,-0.282,-67.688,-28.015,117.310
-0.447,-1.574,-0.300,-76.538,-44.678,126.892
-0.521,-1.536,-0.322,-74.402,-48.645,140.381
-0.541,-1.527,-0.382,-67.505,-41.138,154.663
-0.526,-1.588,-0.488,-62.256,-30.457,167.419
-0.452,-1.682,-0.577,-62.500,-25.879,174.744
-0.378,-1.764,-0.654,-62.744,-29.358,170.959
-0.308,-1.846,-0.656,-54.810,-37.476,161.011
-0.303,-1.875,-0.549,-38.391,-48.401,155.823
-0.286,-1.701,-0.372,-16.541,-61.584,159.424
-0.282,-1.470,-0.182,-2.747,-75.012,165.710
-0.266,-1.356,-0.081,-7.751,-85.876,166.504
-0.205,-1.274,-0.046,-28.870,-92.834,163.757
-0.164,-1.078,-0.002,-46.631,-97.778,156.311
-0.129,-0.814,0.080,-47.607,-102.051,147.949
-0.112,-0.612,0.217,-43.945,-103.149,141.357
-0.142,-0.446,0.343,-43.274,-100.403,135.498
-0.135,-0.260,0.419,-42.053,-95.581,127.075
-0.056,-0.063,0.468,-38.269,-90.820,110.413
0.026,0.093,0.513,-35.522,-87.769,87.402
0.108,0.202,0.562,-33.142,-89.294,67.017
0.183,0.273,0.637,-27.832,-96.924,51.331
0.224,0.282,0.743,-21.118,-106.323,40.527
0.241,0.238,0.869,-13.550,-111.206,35.767
0.227,0.178,0.997,-4.517,-107.788,38.208
0.227,0.145,1.133,8.728,-97.595,45.654
0.121,0.139,1.326,21.912,-82.703,57.068
-0.000,0.157,1.523,31.677,-63.538,70.374
-0.056,0.217,1.746,39.368,-42.725,81.238
-0.064,0.378,1.996,51.025,-25.574,90.820
-0.245,0.540,2.288,69.519,-12.451,107.605
-0.679,0.572,2.541,95.581,4.272,141.785
-1.141,0.561,2.709,117.249,29.907,191.284
-1.533,0.611,2.693,126.892,57.739,222.473
-1.637,0.539,2.575,111.206,86.426,196.167
-1.418,0.375,2.272,54.260,111.755,116.455
-1.018,0.143,1.810,-20.386,110.413,17.151
-0.570,-0.134,1.314,-85.999,72.021,-76.050
-0.108,-0.447,0.946,-133.301,12.878,-149.292
0.294,-0.741,0.721,-155.518,-41.321,-191.833
0.564,-1.003,0.599,-148.254,-71.960,-201.233
0.735,-1.173,0.548,-119.629,-68.359,-181.824
0.862,-1.253,0.515,-79.346,-36.316,-146.240
0.938,-1.289,0.528,-33.691,6.226,-105.591
0.946,-1.263,0.571,8.484,45.105,-65.247
0.881,-1.179,0.623,43.274,73.792,-28.320
0.688,-1.071,0.697,68.970,93.262,0.183
0.561,-0.973,0.714,83.862,107.666,15.930
0.500,-0.879,0.701,82.886,112.488,17.151
0.487,-0.790,0.676,67.444,102.966,11.475
0.438,-0.719,0.651,45.349,77.393,6.714
0.377,-0.679,0.646,22.034,43.457,3.784
0.310,-0.655,0.649,0.183,12.085,1.282
0.276,-0.625,0.650,-16.541,-9.583,-2.563
0.251,-0.626,0.649,-24.292,-22.217,-4.761
0.232,-0.641,0.641,-21.790,-26.245,-1.282
0.211,-0.647,0.625,-12.329,-22.766,5.676
0.182,-0.652,0.622,0.061,-16.113,11.108
0.149,-0.675,0.631,13.550,-9.216,13.000
0.166,-0.672,0.643,24.780,-3.418,11.414
0.197,-0.663,0.648,28.931,-0.610,8.606
0.219,-0.686,0.645,25.879,-2.563,6.104
0.229,-0.715,0.638,18.311,-8.118,3.967
0.225,-0.736,0.642,9.521,-14.954,1.587
0.236,-0.762,0.647,1.099,-19.226,-1.099
0.264,-0.781,0.640,-6.287,-20.325,-2.197
0.273,-0.795,0.620,-11.414,-19.958,-1.221
0.260,-0.816,0.611,-13.611,-19.165,3.052
0.241,-0.814,0.617,-12.024,-17.883,8.057

-0.246,0.925,1.590,103.821,28.992,-75.256
-0.190,1.098,1.591,120.605,41.138,-80.994
-0.281,1.276,1.712,114.502,60.852,-96.130
-0.379,1.057,1.491,94.849,93.933,-120.178
-0.382,0.918,1.281,112.488,118.225,-124.084
-0.390,0.875,1.169,149.597,130.005,-122.131
-0.510,0.924,1.065,178.528,140.869,-129.700
-0.674,0.844,0.716,198.486,145.752,-142.334
-0.881,0.394,0.338,192.078,138.428,-148.376
-1.068,-0.255,-0.229,162.354,125.427,-144.836
-1.550,-1.015,-0.802,119.934,112.915,-125.916
-2.421,-1.594,-1.326,55.420,102.844,-85.449
-3.455,-2.281,-2.037,-10.986,114.807,-50.293
-4.000,-3.614,-2.540,-58.655,172.424,-59.204
-2.781,-4.000,-2.773,-45.959,255.493,-135.559
-0.864,-4.000,-2.482,48.035,305.054,-259.827
0.527,-4.000,-2.084,157.654,302.979,-333.801
1.585,-3.594,-1.926,207.336,261.841,-288.513
2.447,-2.455,-2.203,187.073,247.009,-195.984
3.502,-2.018,-2.597,118.469,253.418,-135.742
3.972,-2.091,-2.783,44.922,227.783,-117.371
3.536,-2.381,-2.290,-3.296,107.178,-62.805
1.907,-2.402,-1.294,-7.690,-73.853,67.322
-0.261,-2.368,-0.432,17.395,-205.994,227.478
-2.129,-2.345,0.423,46.997,-232.056,341.431
-3.066,-2.006,1.276,98.572,-179.443,367.249
-2.934,-1.230,1.784,169.922,-91.309,310.730
-2.681,-0.477,1.883,186.890,-19.348,210.205
-2.252,-0.241,1.766,123.169,8.240,105.530
-1.829,-0.386,1.652,23.437,1.221,25.696
-1.273,-0.659,1.510,-57.922,-14.221,-32.837
-0.765,-0.904,1.161,-113.464,-2.563,-82.031
-0.470,-0.992,0.763,-161.987,22.644,-111.389
-0.350,-0.975,0.333,-185.059,39.124,-109.375
-0.340,-0.728,0.012,-183.350,39.612,-82.458
-0.434,-0.474,-0.214,-159.729,28.564,-57.373
-0.395,-0.378,-0.133,-125.793,12.512,-52.795
-0.180,-0.601,-0.091,-72.632,6.409,-60.059
-0.083,-0.826,-0.037,-12.878,9.338,-52.063
-0.093,-0.913,0.137,36.255,18.433,-28.748
-0.085,-0.979,0.255,73.975,35.828,-8.667
-0.078,-1.099,0.340,97.046,48.950,2.869
-0.099,-1.206,0.407,104.919,53.162,14.709
-0.116,-1.257,0.439,97.473,52.063,27.527
-0.123,-1.275,0.412,79.712,51.086,33.386
-0.092,-1.295,0.349,56.702,49.561,31.555
-0.025,-1.288,0.272,27.161,45.654,25.146
0.039,-1.350,0.150,-0.427,38.635,16.663
0.077,-1.437,0.018,-15.808,25.452,13.000
0.063,-1.499,-0.056,-18.066,6.531,19.897
0.101,-1.475,-0.074,-15.930,-11.719,36.377
0.089,-1.442,-0.112,-22.949,-25.391,54.993
0.093,-1.487,-0.226,-44.556,-33.691,69.702
0.100,-1.610,-0.398,-74.951,-40.894,81.177
0.091,-1.745,-0.567,-100.830,-49.622,94.055
-0.025,-1.889,-0.719,-117.493,-60.608,111.938
-0.206,-2.033,-0.820,-124.329,-73.669,131.714
-0.384,-2.082,-0.853,-119.507,-87.158,148.071
-0.573,-1.996,-0.768,-99.854,-102.966,155.212
-0.664,-1.772,-0.641,-70.618,-117.798,151.367
-0.689,-1.546,-0.452,-49.561,-130.066,140.320
-0.717,-1.407,-0.286,-39.307,-140.015,130.920
-0.680,-1.375,-0.222,-40.039,-143.616,123.962
-0.572,-1.422,-0.257,-56.274,-143.005,116.333
-0.505,-1.539,-0.286,-75.806,-142.822,108.032
-0.478,-1.613,-0.265,-86.304,-145.874,104.065
-0.373,-1.628,-0.208,-85.999,-151.062,105.225
-0.256,-1.619,-0.070,-77.393,-157.593,108.032
-0.180,-1.547,0.057,-63.965,-158.752,115.295
-0.134,-1.385,0.180,-57.434,-155.029,125.916
-0.141,-1.148,0.300,-58.411,-152.466,136.230
-0.155,-0.875,0.428,-61.523,-150.940,139.648
-0.177,-0.615,0.574,-62.561,-144.043,132.812
-0.191,-0.326,0.716,-60.120,-133.362,120.667
-0.104,-0.028,0.788,-58.899,-122.864,104.431
-0.060,0.161,0.806,-63.721,-116.821,82.947
-0.000,0.226,0.822,-77.393,-114.319,63.782
0.064,0.175,0.808,-88.379,-110.168,52.124
0.134,0.148,0.846,-90.698,-102.600,50.720
0.150,0.222,0.895,-84.229,-92.590,57.800
0.109,0.334,1.001,-73.608,-82.153,68.176
0.119,0.462,1.105,-62.134,-66.833,78.796
0.085,0.539,1.228,-49.377,-46.692,89.783
-0.009,0.564,1.354,-32.532,-27.710,103.394
-0.180,0.656,1.551,-11.475,-10.193,118.103
-0.413,0.772,1.843,20.142,9.644,132.568
-0.707,0.900,2.210,61.890,33.569,147.888
-1.123,0.885,2.536,94.604,57.922,158.447
-1.404,0.800,2.703,103.699,84.473,149.841
-1.518,0.665,2.641,78.674,105.652,119.934
-1.333,0.514,2.307,28.076,112.366,65.125
-0.965,0.265,1.847,-27.344,99.121,-2.136
-0.610,0.009,1.440,-72.998,66.345,-58.716
-0.312,-0.224,1.161,-102.539,25.635,-96.008
-0.085,-0.428,0.982,-115.234,-4.944,-116.211
0.133,-0.590,0.859,-112.488,-15.991,-126.831
0.373,-0.723,0.732,-101.318,-8.423,-132.507
0.637,-0.836,0.644,-87.219,6.714,-130.188
0.780,-0.865,0.584,-77.637,23.010,-116.333
0.785,-0.883,0.547,-63.477,35.156,-95.703
0.790,-0.878,0.515,-36.987,40.833,-71.777
0.775,-0.846,0.526,-9.460,41.687,-48.828
0.734,-0.829,0.553,10.803,42.297,-31.616
0.655,-0.829,0.520,19.897,46.143,-16.663
0.618,-0.798,0.522,19.714,45.654,-2.625
0.587,-0.733,0.520,13.550,37.537,7.751
0.502,-0.690,0.557,4.333,26.855,15.015
0.422,-0.636,0.571,2.563,17.639,22.339
0.367,-0.588,0.565,7.812,12.268,29.114
0.320,-0.527,0.571,14.648,9.583,32.715
0.256,-0.486,0.583,24.963,9.521,33.813
0.181,-0.472,0.613,36.926,11.658,33.813
0.150,-0.492,0.643,48.340,14.343,32.410
0.183,-0.506,0.679,54.626,17.334,28.137
0.198,-0.507,0.717,53.284,18.005,21.790
0.180,-0.508,0.754,48.645,13.794,15.564
0.155,-0.547,0.800,42.236,5.615,9.705
0.185,-0.623,0.835,32.776,-1.770,4.028
0.211,-0.696,0.854,19.775,-6.226,-0.488

-1.297,0.433,1.080,123.657,192.261,-49.133
-1.949,0.442,0.516,81.726,210.693,-25.024
-2.691,0.293,-0.416,13.245,211.426,-17.944
-3.374,0.051,-1.547,-49.988,193.604,-51.270
-3.779,-0.533,-2.602,-70.923,178.162,-131.897
-3.978,-1.744,-3.528,-44.067,190.369,-240.173
-3.590,-3.115,-4.000,0.122,228.271,-343.994
-2.838,-4.000,-4.000,62.195,262.878,-431.824
-0.855,-4.000,-3.994,148.254,257.202,-491.760
1.968,-4.000,-2.603,237.061,182.617,-508.301
4.000,-4.000,-0.451,322.571,80.078,-419.250
4.000,-4.000,0.476,348.755,17.639,-270.752
4.000,-3.771,0.365,221.558,28.320,-105.164
2.985,-2.925,-0.472,17.212,67.993,101.074
0.231,-1.957,-1.015,-115.356,45.837,316.589
-1.871,-1.116,-0.886,-106.445,-25.146,447.449
-3.259,-0.280,0.006,26.672,-70.557,429.504
-3.631,0.263,1.106,177.063,-75.867,306.946
-3.047,0.238,1.859,214.355,-71.777,147.034
-2.357,-0.042,1.921,134.155,-68.115,5.920
-1.528,-0.314,1.573,29.480,-62.378,-77.026
-0.878,-0.572,1.180,-39.917,-59.265,-115.540
-0.515,-0.791,0.890,-77.332,-55.542,-126.099
-0.321,-0.953,0.710,-87.463,-44.189,-109.802
-0.276,-1.108,0.544,-73.425,-19.836,-85.083
-0.219,-1.168,0.416,-47.241,8.423,-60.547
-0.120,-1.174,0.327,-21.973,26.062,-36.926
-0.054,-1.187,0.288,-8.545,32.410,-20.813
-0.047,-1.201,0.276,-6.287,32.898,-9.705
-0.054,-1.218,0.264,-11.902,31.860,2.075
-0.072,-1.222,0.235,-21.545,33.691,15.381
-0.087,-1.201,0.217,-31.006,37.659,28.809
-0.105,-1.169,0.208,-35.889,39.795,40.466
-0.127,-1.129,0.203,-35.828,39.368,48.706
-0.134,-1.102,0.205,-32.654,36.926,53.101
-0.135,-1.098,0.206,-29.846,33.325,53.223
-0.118,-1.105,0.196,-28.259,29.358,50.049
-0.087,-1.122,0.174,-27.771,24.719,45.593
-0.067,-1.166,0.130,-32.104,17.883,43.823
-0.064,-1.233,0.073,-38.757,8.850,44.800
-0.087,-1.295,0.021,-42.664,-0.549,48.706
-0.090,-1.333,-0.004,-45.410,-10.132,54.443
-0.079,-1.345,-0.014,-47.058,-20.325,58.655
-0.073,-1.359,-0.022,-46.326,-29.968,62.195
-0.080,-1.406,-0.029,-44.678,-37.842,67.932
-0.107,-1.474,-0.049,-43.762,-42.664,76.477
-0.137,-1.499,-0.072,-43.274,-45.837,86.548
-0.157,-1.525,-0.128,-42.358,-47.546,95.825
-0.141,-1.557,-0.210,-45.837,-47.363,102.173
-0.097,-1.603,-0.361,-50.720,-48.645,105.164
-0.050,-1.677,-0.543,-54.749,-53.162,105.591
0.040,-1.740,-0.709,-58.167,-61.890,106.750
0.023,-1.796,-0.776,-56.519,-76.416,108.643
-0.055,-1.825,-0.750,-45.471,-93.201,113.098
-0.114,-1.792,-0.640,-25.879,-107.788,118.835
-0.094,-1.766,-0.371,-4.761,-113.586,122.681
-0.230,-1.792,-0.290,-3.662,-103.027,127.258
-0.221,-1.721,-0.213,-4.333,-97.107,140.137
-0.191,-1.599,-0.110,6.592,-97.778,153.564
-0.179,-1.474,-0.021,6.836,-98.145,161.926
-0.165,-1.380,-0.002,-6.104,-95.093,165.344
-0.147,-1.270,-0.005,-22.217,-94.360,164.490
-0.114,-1.115,0.010,-33.142,-98.511,159.180
-0.145,-0.933,0.079,-43.701,-105.469,146.362
-0.160,-0.747,0.149,-55.481,-113.220,129.028
-0.073,-0.592,0.185,-67.322,-120.972,108.643
0.026,-0.470,0.203,-75.073,-128.296,88.745
0.125,-0.381,0.233,-74.829,-132.751,75.928
0.254,-0.359,0.285,-73.547,-132.996,69.580
0.334,-0.339,0.357,-71.045,-129.822,69.763
0.295,-0.309,0.453,-68.848,-125.793,74.829
0.237,-0.254,0.573,-68.359,-123.108,79.956
0.157,-0.156,0.701,-69.092,-122.192,79.529
0.097,-0.092,0.830,-70.862,-121.582,72.754
0.126,-0.010,0.969,-80.566,-118.958,63.965
0.100,0.133,1.125,-89.722,-114.868,61.462
0.055,0.414,1.325,-81.909,-104.675,74.463
-0.042,0.770,1.643,-42.480,-85.144,100.830
-0.424,1.104,2.114,29.114,-45.837,147.644
-1.060,1.380,2.565,120.911,17.456,230.164
-1.541,1.415,2.787,197.083,82.642,326.538
-1.970,1.213,2.729,219.666,125.427,383.728
-2.187,0.978,2.621,170.166,146.545,355.225
-1.964,0.748,2.278,74.951,157.654,220.032
-1.239,0.397,1.641,-39.673,152.710,20.691
-0.596,0.016,1.079,-136.230,98.572,-139.587
-0.116,-0.337,0.637,-187.500,9.766,-215.393
0.315,-0.749,0.342,-198.486,-65.613,-230.225
0.553,-1.131,0.109,-173.218,-103.027,-218.628
0.682,-1.383,-0.036,-121.704,-89.172,-193.420
0.858,-1.424,0.019,-72.815,-45.776,-163.696
0.989,-1.453,0.263,-14.160,-14.343,-134.705
1.110,-1.450,0.489,36.194,-0.732,-97.900
1.120,-1.453,0.748,62.439,4.944,-56.213
0.975,-1.396,0.929,68.787,15.991,-16.907
0.798,-1.276,0.976,63.660,35.034,11.597
0.666,-1.161,0.903,51.575,51.086,24.353
0.531,-1.076,0.815,34.058,52.002,25.452
0.449,-1.027,0.757,16.296,36.926,23.193
0.384,-0.983,0.730,2.930,15.259,22.461
0.337,-0.917,0.730,-5.188,-1.587,23.804
0.284,-0.857,0.724,-11.047,-9.888,26.062
0.239,-0.816,0.735,-16.663,-11.963,29.297
0.198,-0.782,0.755,-17.395,-9.338,33.081
0.173,-0.745,0.770,-13.367,-4.944,36.316
0.169,-0.699,0.801,-9.705,-1.404,37.170
0.145,-0.633,0.832,-6.653,0.488,36.072
0.130,-0.569,0.838,-4.639,1.831,32.715
0.116,-0.561,0.847,-6.348,4.944,26.245
0.118,-0.597,0.823,-13.733,10.437,17.517
0.153,-0.626,0.759,-21.545,16.541,8.728
0.196,-0.638,0.696,-26.306,18.311,2.075
0.239,-0.651,0.669,-29.297,15.015,-1.404
0.295,-0.668,0.657,-29.907,9.216,-1.892
0.333,-0.664,0.644,-26.672,5.676,-0.671
0.375,-0.642,0.642,-22.949,4.517,0.183
0.407,-0.641,0.621,-20.386,5.493,0.061
0.419,-0.643,0.579,-19.470,7.507,-0.793
0.435,-0.642,0.540,-19.409,7.874,-2.441

-2.612,-0.658,-1.383,-143.372,169.861,-105.652
-2.923,-1.000,-2.009,-124.023,121.155,-194.275
-3.119,-1.846,-2.214,-65.247,61.646,-316.101
-3.211,-3.034,-2.000,15.808,13.000,-431.641
-3.070,-4.000,-1.557,84.900,-0.427,-516.907
-2.326,-4.000,-1.126,128.296,9.766,-571.411
-0.471,-4.000,-0.390,183.167,6.836,-562.500
0.959,-4.000,0.402,273.132,13.489,-471.130
2.537,-4.000,0.758,286.804,62.317,-351.196
3.596,-3.505,0.089,235.779,152.466,-210.449
4.000,-3.210,-0.875,127.686,225.708,-56.702
3.484,-2.520,-1.733,13.123,239.380,92.102
2.076,-1.735,-1.836,-43.335,168.213,227.234
0.370,-1.181,-1.366,-41.504,42.908,345.825
-1.083,-1.046,-0.599,-10.376,-59.387,420.837
-2.128,-0.798,0.272,33.936,-107.361,393.799
-2.796,-0.401,1.148,82.214,-104.187,276.917
-2.801,-0.085,1.707,97.534,-75.378,155.273
-2.379,-0.015,1.851,83.618,-44.495,83.008
-1.891,-0.083,1.594,53.650,-24.780,40.527
-1.496,-0.097,1.258,27.832,-17.761,0.183
-1.128,-0.137,1.012,9.705,-20.020,-45.776
-0.738,-0.285,0.772,-8.850,-24.414,-85.205
-0.448,-0.470,0.572,-25.208,-27.771,-104.492
-0.249,-0.687,0.426,-35.828,-26.611,-106.018
-0.120,-0.862,0.341,-40.833,-17.273,-94.238
-0.033,-0.967,0.294,-36.133,-2.197,-70.190
0.001,-1.048,0.276,-21.301,7.812,-47.791
0.005,-1.115,0.297,-5.066,10.498,-30.762
-0.020,-1.162,0.322,6.226,8.545,-15.198
-0.072,-1.195,0.334,13.062,3.662,-1.099
-0.128,-1.200,0.351,14.465,0.061,12.085
-0.138,-1.199,0.358,10.376,1.343,26.184
-0.120,-1.212,0.329,7.446,4.089,37.476
-0.085,-1.248,0.274,6.409,5.676,43.701
-0.054,-1.284,0.233,4.089,4.822,49.377
-0.057,-1.305,0.200,3.052,0.854,58.533
-0.087,-1.314,0.169,2.502,-3.906,70.923
-0.136,-1.315,0.136,0.061,-6.348,83.374
-0.154,-1.286,0.105,-3.113,-6.042,95.093
-0.203,-1.242,0.093,-6.287,-3.357,105.408
-0.265,-1.236,0.085,-10.254,-1.709,111.511
-0.279,-1.165,0.076,-17.883,-5.249,110.474
-0.355,-1.258,0.066,-31.006,-15.381,100.525
-0.378,-1.310,0.041,-37.842,-34.119,93.018
-0.366,-1.310,0.065,-38.147,-58.289,88.745
-0.394,-1.308,0.093,-41.443,-79.224,82.581
-0.422,-1.306,0.109,-48.584,-94.116,75.317
-0.404,-1.323,0.091,-53.040,-103.088,67.993
-0.350,-1.390,0.060,-53.101,-106.140,63.721
-0.301,-1.496,0.055,-51.025,-103.210,65.186
-0.233,-1.597,0.040,-47.913,-96.436,73.730
-0.191,-1.649,0.047,-43.030,-87.585,85.083
-0.160,-1.681,0.079,-31.799,-75.623,96.680
-0.115,-1.716,0.078,-20.874,-61.768,108.337
-0.056,-1.775,0.041,-15.930,-48.889,117.737
0.021,-1.745,0.016,-13.245,-39.917,124.146
0.077,-1.656,0.000,-4.089,-36.377,129.639
0.154,-1.588,-0.010,2.747,-36.438,133.545
0.188,-1.488,0.042,3.479,-43.091,132.935
0.214,-1.324,0.157,2.991,-56.213,130.798
0.297,-1.216,0.238,-0.916,-69.885,130.066
0.352,-1.194,0.276,-16.174,-80.750,130.981
0.330,-1.109,0.317,-35.095,-87.463,131.042
0.284,-0.948,0.372,-44.617,-90.881,129.028
0.245,-0.797,0.434,-48.645,-90.149,123.779
0.276,-0.692,0.452,-54.321,-83.862,113.525
0.319,-0.642,0.443,-62.073,-77.698,103.638
0.298,-0.580,0.490,-69.580,-77.759,98.938
0.260,-0.476,0.561,-72.693,-83.374,99.487
0.217,-0.374,0.630,-71.533,-88.623,102.539
0.203,-0.282,0.697,-69.031,-91.064,104.614
0.187,-0.227,0.735,-64.636,-89.355,105.835
0.147,-0.194,0.792,-61.401,-83.130,108.948
0.102,-0.105,0.862,-56.335,-72.327,111.694
0.076,0.016,0.931,-48.828,-60.669,112.671
0.015,0.143,1.043,-40.405,-53.345,111.084
-0.062,0.254,1.254,-26.672,-48.218,110.535
-0.166,0.450,1.483,-4.150,-39.307,116.333
-0.387,0.685,1.713,17.456,-24.902,129.944
-0.636,0.817,1.871,33.081,-6.348,150.635
-1.128,0.851,2.020,35.339,6.531,174.500
-1.647,0.889,2.114,35.767,11.902,185.547
-1.813,0.925,2.130,33.752,21.362,156.738
-1.569,0.827,1.972,8.850,41.626,81.848
-1.123,0.562,1.607,-37.964,64.392,-5.310
-0.663,0.233,1.166,-78.552,68.115,-69.946
-0.286,-0.047,0.786,-97.900,46.997,-107.178
-0.013,-0.282,0.546,-103.455,16.235,-128.052
0.243,-0.487,0.413,-98.450,-9.399,-142.761
0.444,-0.697,0.329,-84.045,-25.208,-150.391
0.630,-0.884,0.282,-64.636,-28.076,-148.193
0.731,-1.002,0.301,-41.199,-24.963,-136.047
0.781,-1.037,0.386,-12.695,-21.301,-113.953
0.815,-1.023,0.505,13.000,-18.921,-87.585
0.789,-1.010,0.628,30.090,-13.794,-64.636
0.743,-1.011,0.696,40.039,-5.127,-46.509
0.702,-1.015,0.732,45.044,4.395,-30.029
0.656,-1.002,0.749,44.189,13.611,-13.916
0.595,-0.955,0.741,39.673,20.020,-0.366
0.548,-0.911,0.703,33.203,22.339,8.850
0.498,-0.878,0.672,26.489,18.799,13.855
0.462,-0.825,0.660,22.522,10.864,17.273
0.430,-0.774,0.665,19.592,2.563,18.005
0.390,-0.745,0.685,15.625,-3.113,17.212
0.332,-0.732,0.702,12.268,-5.920,17.334
0.259,-0.721,0.738,11.108,-6.348,18.311
0.201,-0.699,0.779,11.353,-4.761,18.799
0.168,-0.683,0.815,11.597,-1.892,17.700
0.156,-0.681,0.840,9.827,0.916,15.869
0.153,-0.679,0.851,6.287,2.869,14.771
0.147,-0.660,0.847,2.441,3.784,14.099
0.144,-0.656,0.835,-1.892,3.357,13.489
0.148,-0.645,0.819,-6.226,1.770,12.451
0.144,-0.642,0.808,-9.338,0.305,11.230
0.148,-0.630,0.800,-12.085,-0.610,10.376
0.156,-0.616,0.776,-14.526,-0.488,8.789
0.169,-0.626,0.747,-16.052,-0.427,5.432
0.191,-0.640,0.725,-15.137,-0.854,2.747

-0.305,0.997,1.659,70.557,-3.601,-83.557
-0.372,1.019,1.614,60.608,7.202,-99.182
-0.322,0.970,1.485,50.659,17.151,-121.094
-0.281,0.888,1.400,47.241,23.315,-139.893
-0.280,0.849,1.301,47.791,29.114,-153.259
-0.330,0.816,1.214,51.086,36.499,-165.100
-0.414,0.815,1.221,66.528,42.969,-171.265
-0.577,0.861,1.267,96.863,54.138,-157.593
-0.838,0.792,1.182,126.892,81.787,-120.789
-1.110,0.615,0.921,142.334,131.042,-77.332
-1.655,0.373,0.667,149.170,197.205,-41.565
-2.192,0.052,0.291,143.799,268.250,-23.621
-2.702,-0.396,-0.244,114.258,332.092,-42.725
-3.053,-0.955,-1.036,58.105,376.221,-102.356
-3.264,-1.731,-2.017,-18.250,380.737,-196.960
-3.258,-2.667,-2.956,-83.740,335.205,-319.641
-2.838,-3.641,-3.325,-94.727,258.362,-460.388
-1.925,-4.000,-2.959,-38.879,163.208,-614.990
-0.893,-4.000,-2.120,70.862,56.091,-721.985
0.542,-4.000,-0.534,184.631,-39.001,-664.185
2.179,-4.000,0.174,269.836,-33.203,-424.316
2.865,-3.704,0.144,257.019,65.674,-161.194
2.488,-2.790,-0.481,199.768,179.871,70.251
1.342,-2.283,-1.161,118.896,246.887,262.451
0.118,-1.641,-1.365,65.979,229.065,369.751
-0.600,-1.045,-1.109,93.506,134.705,361.511
-1.007,-0.561,-0.497,135.498,14.221,270.203
-1.417,-0.463,0.302,139.099,-102.600,147.888
-1.644,-0.416,1.047,110.657,-181.946,59.509
-1.769,-0.378,1.552,71.777,-195.068,16.296
-1.778,-0.309,1.648,39.185,-141.907,-5.310
-1.470,-0.359,1.461,13.916,-66.833,-31.067
-0.939,-0.583,1.165,-7.812,-18.738,-65.369
-0.429,-0.884,0.880,-29.297,-14.221,-92.651
-0.114,-1.104,0.674,-50.842,-34.119,-102.356
0.052,-1.267,0.584,-60.669,-53.040,-93.140
0.074,-1.188,0.457,-52.368,-52.734,-62.866
-0.002,-1.089,0.408,-39.856,-37.842,-26.306
-0.082,-1.027,0.362,-24.597,-15.930,7.446
-0.141,-1.053,0.375,-4.761,0.610,36.560
-0.226,-1.046,0.412,14.587,11.108,59.448
-0.339,-1.011,0.444,24.475,16.174,70.862
-0.408,-0.995,0.435,23.315,16.174,67.078
-0.385,-1.023,0.396,14.160,8.728,52.124
-0.323,-1.092,0.346,0.488,-3.784,34.241
-0.264,-1.135,0.307,-11.841,-17.395,20.874
-0.245,-1.145,0.290,-19.226,-28.198,14.404
-0.245,-1.155,0.275,-23.560,-33.813,14.648
-0.259,-1.174,0.251,-26.489,-36.194,19.043
-0.274,-1.190,0.214,-28.076,-37.109,23.560
-0.256,-1.191,0.162,-31.433,-40.588,25.208
-0.224,-1.196,0.110,-37.231,-47.668,23.804
-0.191,-1.232,0.039,-43.579,-60.547,20.752
-0.195,-1.282,-0.026,-48.645,-74.524,18.982
-0.221,-1.338,-0.068,-49.011,-86.487,22.156
-0.290,-1.381,-0.070,-45.227,-95.093,30.701
-0.339,-1.452,-0.066,-40.527,-96.863,41.748
-0.366,-1.537,-0.065,-38.391,-95.093,53.040
-0.410,-1.601,-0.055,-40.100,-92.590,64.941
-0.465,-1.660,-0.041,-43.457,-91.553,78.918
-0.525,-1.722,-0.061,-50.415,-92.773,93.079
-0.506,-1.793,-0.138,-61.340,-93.140,103.699
-0.445,-1.882,-0.244,-76.721,-93.140,108.765
-0.371,-1.963,-0.350,-93.567,-94.604,111.816
-0.304,-2.019,-0.418,-106.262,-99.548,115.906
-0.323,-2.001,-0.377,-111.877,-107.361,124.634
-0.411,-1.921,-0.259,-102.234,-110.718,141.113
-0.503,-1.724,-0.149,-76.965,-104.797,160.889
-0.568,-1.564,-0.074,-53.040,-89.294,177.063
-0.534,-1.492,-0.080,-48.828,-69.397,184.326
-0.442,-1.446,-0.168,-55.176,-56.213,181.396
-0.302,-1.444,-0.276,-61.035,-54.016,175.110
-0.179,-1.427,-0.347,-67.505,-59.814,170.776
-0.089,-1.373,-0.345,-69.336,-69.275,166.443
-0.047,-1.254,-0.217,-61.707,-78.125,161.072
-0.105,-1.061,0.033,-47.058,-84.473,156.921
-0.156,-0.844,0.255,-32.898,-82.031,151.978
-0.159,-0.627,0.412,-25.513,-73.303,141.113
-0.132,-0.424,0.500,-28.748,-65.918,127.502
-0.046,-0.335,0.531,-46.753,-68.848,111.084
0.077,-0.277,0.547,-69.885,-85.938,94.238
0.284,-0.236,0.549,-89.661,-105.835,80.994
0.591,-0.188,0.596,-104.858,-117.188,70.129
0.719,0.027,0.756,-100.098,-114.746,76.172
0.509,0.378,1.088,-67.139,-91.919,117.065
-0.245,0.910,1.887,-1.160,-44.556,196.655
-1.398,1.596,3.092,102.600,31.311,307.068
-3.112,2.046,4.000,194.275,116.455,418.030
-4.000,2.116,4.000,200.378,187.622,456.543
-4.000,2.209,4.000,92.773,232.239,340.759
-3.563,1.702,3.090,-68.848,226.013,106.140
-2.286,1.006,1.674,-199.097,167.908,-94.299
-1.035,0.355,0.593,-275.757,71.167,-221.191
0.077,-0.182,-0.200,-281.067,-5.798,-295.227
1.092,-1.145,-0.649,-230.835,-21.362,-343.445
1.568,-1.879,-0.898,-171.570,23.743,-351.013
1.723,-2.026,-0.805,-77.148,56.274,-296.814
1.890,-1.532,-0.442,11.841,32.227,-207.703
2.050,-1.268,0.065,54.138,-18.982,-143.738
1.915,-1.392,0.488,71.655,-50.964,-101.685
1.572,-1.362,0.742,93.567,-37.537,-50.110
1.199,-1.057,0.897,109.070,7.812,2.991
0.928,-0.765,0.900,110.657,52.063,33.020
0.734,-0.639,0.845,100.769,70.313,38.330
0.578,-0.589,0.823,83.618,56.885,34.302
0.476,-0.589,0.836,65.369,27.039,29.846
0.386,-0.597,0.876,46.753,-2.075,26.550
0.316,-0.626,0.913,28.992,-23.376,23.865
0.255,-0.661,0.951,16.846,-34.363,23.926
0.223,-0.696,0.970,9.827,-36.560,27.832
0.202,-0.703,0.987,7.141,-32.593,33.386
0.191,-0.684,0.989,5.493,-25.635,38.818
0.226,-0.668,0.944,1.282,-18.494,40.344
0.286,-0.684,0.883,-4.639,-13.977,37.231
0.313,-0.733,0.861,-13.489,-11.230,32.166
0.319,-0.777,0.784,-21.606,-9.399,30.029
0.339,-0.803,0.735,-24.292,-11.292,33.325
0.359,-0.816,0.706,-24.719,-12.451,37.842
0.363,-0.809,0.676,-23.437,-10.071,41.992
